stim_file,have_break,press_spacebar_instructions,just_pay_attention,sentence_stim,sentence_blocks.thisRepN,sentence_blocks.thisTrialN,sentence_blocks.thisN,sentence_blocks.thisIndex,press_spacebar_instr_loop.thisRepN,press_spacebar_instr_loop.thisTrialN,press_spacebar_instr_loop.thisN,press_spacebar_instr_loop.thisIndex,just_pay_attn_loop.thisRepN,just_pay_attn_loop.thisTrialN,just_pay_attn_loop.thisN,just_pay_attn_loop.thisIndex,sentence_loop.thisRepN,sentence_loop.thisTrialN,sentence_loop.thisN,sentence_loop.thisIndex,letters_loop.thisRepN,letters_loop.thisTrialN,letters_loop.thisN,letters_loop.thisIndex,textWelcome.started,textWelcome.stopped,keyWelcome.keys,keyWelcome.rt,keyWelcome.started,keyWelcome.stopped,textSentenceInstructions.started,textSentenceInstructions.stopped,keySentenceInstructions.keys,keySentenceInstructions.rt,keySentenceInstructions.started,keySentenceInstructions.stopped,last_error_t,visible_sentence,current_character,sentence_type,phase_type,lp_diam,rp_diam,lp_validity,rp_validity,lp_diam_mean,rp_diam_mean,lp_validity_mean,rp_validity_mean,textSentenceTrial.started,textSentenceTrial.stopped,keySentenceTrial.keys,keySentenceTrial.started,keySentenceTrial.stopped,last_error_rt,keySentenceTrial.rt,textBlank500.started,textBlank500.stopped,textSentenceBreak.started,textSentenceBreak.stopped,keySentenceBreak.keys,keySentenceBreak.rt,keySentenceBreak.started,keySentenceBreak.stopped,textAttention.started,textAttention.stopped,keyAttention.keys,keyAttention.rt,keyAttention.started,keyAttention.stopped,textGoodbye.started,textGoodbye.stopped,keyGoodbye.keys,keyGoodbye.started,keyGoodbye.stopped,participant,session,date,expName,psychopyVersion,frameRate,
,,,,,,,,,,,,,,,,,,,,,,,,,13.041157599999906,None,space,9.25162469999998,13.041157599999906,None,,,,,,,,,,,,,,,,,,,,,,,,,,,,,,,,,,,,,,,,,,,,,,Letters,001,2022_Jun_16_1127,ErrorStudy_v1,2021.2.3,60.00373223214496,
Letters_1st_Run.xlsx,1,1,0,,0,0,0,0,0,0,0,0,,,,,,,,,,,,,,,,,,,24.39631929999996,None,space,6.360576700000024,24.39631929999996,None,,,,,,,,,,,,,,,,,,,,,,,,,,,,,,,,,,,,,,,,Letters,001,2022_Jun_16_1127,ErrorStudy_v1,2021.2.3,60.00373223214496,
Letters_1st_Run.xlsx,1,1,0,Eye-tracking is a sensor technolo*zy that can detec*k a person’s presen*ve and follow what they are lookin*b at in real-ti*ne.,0,0,0,0,,,,,,,,,0,0,0,0,0,0,0,0,,,,,,,,,,,,,-999.5,E,E,,sentence_trial,"[3.255462646484375, 3.2487335205078125, 3.2482757568359375, 3.2481231689453125, 3.2519683837890625, 3.26348876953125, 3.2641448974609375, 3.2738037109375, 3.2789306640625, 3.2647705078125, 3.2729949951171875, 3.2938995361328125, 3.2835845947265625, 3.2718658447265625, 3.2968902587890625, 3.3005218505859375, 3.3021697998046875, 3.314849853515625, 3.3138580322265625, 3.310516357421875, 3.3111572265625, 3.3150177001953125, 3.3120269775390625, 3.300994873046875, 3.310516357421875, 3.32684326171875, 3.3196258544921875, 3.312591552734375, 3.32745361328125, 3.3270111083984375]","[2.9315338134765625, 2.94677734375, 2.9442138671875, 2.9327545166015625, 2.9394073486328125, 2.8993072509765625, 2.87725830078125, 2.9252471923828125, 2.94219970703125, 2.9482269287109375, 2.9567108154296875, 2.95703125, 2.9591217041015625, 2.9635162353515625, 2.9672088623046875, 2.9701385498046875, 3.0666351318359375, 3.089111328125, 2.9701690673828125, 2.9671630859375, 2.954864501953125, 2.9477081298828125, 2.9521942138671875, 2.9557037353515625, 2.96624755859375, 2.966949462890625, 2.966888427734375, 2.964202880859375, 2.9609527587890625, 2.95538330078125]","[1, 1, 1, 1, 1, 1, 1, 1, 1, 1, 1, 1, 1, 1, 1, 1, 1, 1, 1, 1, 1, 1, 1, 1, 1, 1, 1, 1, 1, 1]","[1, 1, 1, 1, 1, 1, 1, 1, 1, 1, 1, 1, 1, 1, 1, 1, 1, 1, 1, 1, 1, 1, 1, 1, 1, 1, 1, 1, 1, 1]",3.2907363891601564,2.958160909016927,1.0,1.0,30.806069399999956,None,None,30.806069399999956,None,,,,,,,,,,,,,,,,,,,,,,Letters,001,2022_Jun_16_1127,ErrorStudy_v1,2021.2.3,60.00373223214496,
Letters_1st_Run.xlsx,1,1,0,Eye-tracking is a sensor technolo*zy that can detec*k a person’s presen*ve and follow what they are lookin*b at in real-ti*ne.,0,0,0,0,,,,,,,,,0,0,0,0,1,0,1,0,,,,,,,,,,,,,-999.0,Ey,y,,sentence_trial,"[3.3992767333984375, 3.3388519287109375, 3.3466796875, 3.36004638671875, 3.3663482666015625, 3.3636932373046875, 3.3582305908203125, 3.3668365478515625, 3.384674072265625, 3.3957366943359375, 3.3853759765625, 3.3851318359375, 3.3800506591796875, 3.37158203125, 3.382843017578125, 3.3885955810546875, 3.3903656005859375, 3.384033203125, 3.360443115234375, 3.3568115234375, 3.370452880859375, 3.3679046630859375, 3.3573455810546875, 3.35589599609375, 3.356781005859375, 3.4359893798828125, 3.4262542724609375, 3.4262542724609375, nan]","[2.9583740234375, 2.9666595458984375, 2.984649658203125, 2.991943359375, 2.98876953125, 2.9940948486328125, 2.98089599609375, 2.983489990234375, 2.9946136474609375, 2.9821014404296875, 2.983154296875, 3.0036773681640625, 2.9948272705078125, 2.984649658203125, 2.9947509765625, 3.01239013671875, 3.005157470703125, 3.0015411376953125, 3.012786865234375, 3.000244140625, 2.98870849609375, 2.9705352783203125, 2.96112060546875, 2.9825897216796875, 2.9969329833984375, 2.9911651611328125, 2.991119384765625, 2.9650421142578125, 2.947296142578125]","[1, 1, 1, 1, 1, 1, 1, 1, 1, 1, 1, 1, 1, 1, 1, 1, 1, 1, 1, 1, 1, 1, 1, 1, 1, 1, 1, 1, 0]","[1, 1, 1, 1, 1, 1, 1, 1, 1, 1, 1, 1, 1, 1, 1, 1, 1, 1, 1, 1, 1, 1, 1, 1, 1, 1, 1, 1, 1]",nan,2.9866648706896552,0.9655172413793104,1.0,31.32233569999994,None,None,31.32233569999994,None,,,,,,,,,,,,,,,,,,,,,,Letters,001,2022_Jun_16_1127,ErrorStudy_v1,2021.2.3,60.00373223214496,
Letters_1st_Run.xlsx,1,1,0,Eye-tracking is a sensor technolo*zy that can detec*k a person’s presen*ve and follow what they are lookin*b at in real-ti*ne.,0,0,0,0,,,,,,,,,0,0,0,0,2,0,2,0,,,,,,,,,,,,,-998.5,Eye,e,,sentence_trial,"[3.2920989990234375, 3.3357696533203125, 3.340667724609375, 3.344818115234375, 3.347808837890625, 3.3563690185546875, 3.4661712646484375, 3.430938720703125, 3.430938720703125, nan, 3.2911834716796875, 3.32855224609375, 3.3768463134765625, 3.3988494873046875, 3.39666748046875, 3.3946533203125, 3.40625, 3.417388916015625, 3.4251708984375, 3.45574951171875, 3.590728759765625, 3.48773193359375, 3.426483154296875, 3.435699462890625, 3.435333251953125, 3.4428558349609375, 3.5367889404296875, 3.524749755859375, 3.4282073974609375, 3.42034912109375]","[2.9589080810546875, 2.9639739990234375, 2.9771728515625, 2.9818267822265625, 2.9857330322265625, 2.9941253662109375, 2.98431396484375, 2.971710205078125, 2.977447509765625, 2.98284912109375, 3.00189208984375, 3.0024261474609375, 2.999908447265625, 3.01141357421875, 3.0182952880859375, 3.0059967041015625, 2.9982452392578125, 3.0014801025390625, 3.02459716796875, 3.0434417724609375, 3.053436279296875, 3.0523529052734375, 3.0485076904296875, 3.0539703369140625, 3.1891937255859375, 3.184722900390625, 3.047515869140625, 3.060028076171875, 3.064361572265625, 3.049346923828125]","[1, 1, 1, 1, 1, 1, 1, 1, 1, 0, 1, 1, 1, 1, 1, 1, 1, 1, 1, 1, 1, 1, 1, 1, 1, 1, 1, 1, 1, 1]","[1, 1, 1, 1, 1, 1, 1, 1, 1, 1, 1, 1, 1, 1, 1, 1, 1, 1, 1, 1, 1, 1, 1, 1, 1, 1, 1, 1, 1, 1]",nan,3.022973124186198,0.9666666666666667,1.0,31.806243699999982,None,None,31.806243699999982,None,,,,,,,,,,,,,,,,,,,,,,Letters,001,2022_Jun_16_1127,ErrorStudy_v1,2021.2.3,60.00373223214496,
Letters_1st_Run.xlsx,1,1,0,Eye-tracking is a sensor technolo*zy that can detec*k a person’s presen*ve and follow what they are lookin*b at in real-ti*ne.,0,0,0,0,,,,,,,,,0,0,0,0,3,0,3,0,,,,,,,,,,,,,-998.0,Eye-,-,,sentence_trial,"[3.4231719970703125, 3.4244537353515625, 3.42474365234375, 3.4247283935546875, 3.4259033203125, 3.4125823974609375, 3.4636993408203125, 3.508209228515625, 3.4280853271484375, 3.424468994140625, 3.4011077880859375, 3.4159393310546875, 3.4519195556640625, 3.4519195556640625, 3.5482330322265625, 3.52838134765625, 3.52838134765625, nan, nan, nan, nan, nan, 3.4589385986328125, 3.51104736328125, 3.51434326171875, 3.51434326171875, 3.58819580078125, 3.621490478515625, 3.5303955078125, 3.506439208984375]","[3.0503692626953125, 3.0465087890625, 3.04205322265625, 3.050018310546875, 3.0469512939453125, 3.0439453125, 3.1836395263671875, 3.187713623046875, 3.0500946044921875, 3.0385284423828125, 3.04156494140625, 3.0444488525390625, 3.04449462890625, 3.04449462890625, 3.17633056640625, 3.16815185546875, 3.0704193115234375, 3.083099365234375, 3.0894622802734375, 3.076934814453125, 3.1727294921875, 3.1793975830078125, 3.099761962890625, 3.118194580078125, 3.1067962646484375, 3.1067962646484375, 3.1171875, 3.124359130859375, 3.1311798095703125, 3.127288818359375]","[1, 1, 1, 1, 1, 1, 1, 1, 1, 1, 1, 1, 1, 1, 1, 1, 1, 0, 0, 0, 0, 0, 1, 1, 1, 1, 1, 1, 1, 1]","[1, 1, 1, 1, 1, 1, 1, 1, 1, 1, 1, 1, 1, 1, 1, 1, 1, 1, 1, 1, 1, 1, 1, 1, 1, 1, 1, 1, 1, 1]",nan,3.0954305013020833,0.8333333333333334,1.0,32.305794799999944,None,None,32.305794799999944,None,,,,,,,,,,,,,,,,,,,,,,Letters,001,2022_Jun_16_1127,ErrorStudy_v1,2021.2.3,60.00373223214496,
Letters_1st_Run.xlsx,1,1,0,Eye-tracking is a sensor technolo*zy that can detec*k a person’s presen*ve and follow what they are lookin*b at in real-ti*ne.,0,0,0,0,,,,,,,,,0,0,0,0,4,0,4,0,,,,,,,,,,,,,-997.5,Eye-t,t,,sentence_trial,"[3.5037078857421875, 3.533905029296875, 3.638916015625, 3.5614166259765625, 3.5614166259765625, nan, nan, nan, 3.4922027587890625, 3.52752685546875, 3.531524658203125, 3.531524658203125, 3.590240478515625, 3.597991943359375, 3.532012939453125, 3.530426025390625, 3.5233001708984375, 3.522979736328125, 3.5411529541015625, 3.5411529541015625, 3.6302337646484375, 3.65948486328125, 3.55511474609375, 3.55841064453125, 3.5639495849609375, 3.54058837890625, 3.5344085693359375, 3.542572021484375, 3.540069580078125, 3.5237274169921875]","[3.1331634521484375, 3.1380462646484375, 3.2678985595703125, 3.2745819091796875, 3.2745819091796875, nan, 3.088592529296875, 3.139312744140625, 3.1284332275390625, 3.11541748046875, 3.0929107666015625, 3.0929107666015625, 3.235321044921875, 3.2240142822265625, 3.1256103515625, 3.1424560546875, 3.140625, 3.13720703125, 3.1363525390625, 3.1363525390625, 3.1275177001953125, 3.1306304931640625, 3.1313934326171875, 3.149139404296875, 3.1369781494140625, 3.127685546875, 3.1067962646484375, 3.122528076171875, 3.135162353515625, 3.122955322265625]","[1, 1, 1, 1, 1, 0, 0, 0, 1, 1, 1, 1, 1, 1, 1, 1, 1, 1, 1, 1, 1, 1, 1, 1, 1, 1, 1, 1, 1, 1]","[1, 1, 1, 1, 1, 0, 1, 1, 1, 1, 1, 1, 1, 1, 1, 1, 1, 1, 1, 1, 1, 1, 1, 1, 1, 1, 1, 1, 1, 1]",nan,nan,0.9,0.9666666666666667,32.80499939999993,None,None,32.80499939999993,None,,,,,,,,,,,,,,,,,,,,,,Letters,001,2022_Jun_16_1127,ErrorStudy_v1,2021.2.3,60.00373223214496,
Letters_1st_Run.xlsx,1,1,0,Eye-tracking is a sensor technolo*zy that can detec*k a person’s presen*ve and follow what they are lookin*b at in real-ti*ne.,0,0,0,0,,,,,,,,,0,0,0,0,5,0,5,0,,,,,,,,,,,,,-997.0,Eye-tr,r,,sentence_trial,"[3.5197906494140625, 3.5473480224609375, 3.5442962646484375, 3.529632568359375, 3.5269622802734375, 3.53460693359375, 3.5392303466796875, 3.5392303466796875, 3.64581298828125, 3.6035919189453125, 3.53387451171875, 3.5334320068359375, 3.601715087890625, 3.6085968017578125, 3.5332489013671875, 3.527557373046875, 3.5329132080078125, 3.5329132080078125, 3.531829833984375, 3.5324554443359375, 3.526824951171875, 3.516082763671875, 3.5172576904296875, 3.5172576904296875, 3.5321807861328125, 3.5295867919921875, 3.5274810791015625, 3.5274810791015625, 3.5135955810546875, 3.5193939208984375]","[3.1180267333984375, 3.101837158203125, 3.09991455078125, 3.1040802001953125, 3.11981201171875, 3.120269775390625, 3.1104888916015625, 3.1104888916015625, 3.115875244140625, 3.1077880859375, 3.24127197265625, 3.2423248291015625, 3.0831451416015625, 3.0627899169921875, 3.093658447265625, 3.109344482421875, 3.102081298828125, 3.102081298828125, 3.102203369140625, 3.0905914306640625, 3.0755767822265625, 3.0819091796875, 3.095977783203125, 3.095977783203125, 3.1020355224609375, 3.10211181640625, 3.0899658203125, 3.0899658203125, 3.0801849365234375, 3.07757568359375]","[1, 1, 1, 1, 1, 1, 1, 1, 1, 1, 1, 1, 1, 1, 1, 1, 1, 1, 1, 1, 1, 1, 1, 1, 1, 1, 1, 1, 1, 1]","[1, 1, 1, 1, 1, 1, 1, 1, 1, 1, 1, 1, 1, 1, 1, 1, 1, 1, 1, 1, 1, 1, 1, 1, 1, 1, 1, 1, 1, 1]",3.5408727010091146,3.1076451619466146,1.0,1.0,33.304614000000015,None,None,33.304614000000015,None,,,,,,,,,,,,,,,,,,,,,,Letters,001,2022_Jun_16_1127,ErrorStudy_v1,2021.2.3,60.00373223214496,
Letters_1st_Run.xlsx,1,1,0,Eye-tracking is a sensor technolo*zy that can detec*k a person’s presen*ve and follow what they are lookin*b at in real-ti*ne.,0,0,0,0,,,,,,,,,0,0,0,0,6,0,6,0,,,,,,,,,,,,,-996.5,Eye-tra,a,,sentence_trial,"[3.51336669921875, 3.5113677978515625, 3.51361083984375, 3.4968719482421875, 3.4879608154296875, 3.4899749755859375, 3.486297607421875, 3.474395751953125, 3.465087890625, 3.4813079833984375, 3.47802734375, 3.476654052734375, 3.4774932861328125, 3.4774932861328125, 3.4480743408203125, 3.460968017578125, 3.4616241455078125, 3.4616241455078125, 3.46649169921875, 3.485565185546875, 3.4790496826171875, 3.4542236328125, 3.4595489501953125, 3.4595489501953125, 3.4701995849609375, 3.4722747802734375, 3.4832611083984375, 3.4832611083984375, 3.48907470703125, 3.48907470703125]","[3.0950164794921875, 3.0928192138671875, 3.083282470703125, 3.0916595458984375, 3.08544921875, 3.0735931396484375, 3.06378173828125, 3.0639190673828125, 3.0707855224609375, 3.0721435546875, 3.0629119873046875, 3.0565948486328125, 3.0511474609375, 3.0511474609375, 3.1527862548828125, 3.2267913818359375, 3.0729827880859375, 3.0729827880859375, 3.1999053955078125, 3.1712646484375, 3.0448760986328125, 3.0541534423828125, 3.046539306640625, 3.046539306640625, 3.049713134765625, 3.0677947998046875, 3.0655670166015625, 3.0655670166015625, 3.0837249755859375, 3.0837249755859375]","[1, 1, 1, 1, 1, 1, 1, 1, 1, 1, 1, 1, 1, 1, 1, 1, 1, 1, 1, 1, 1, 1, 1, 1, 1, 1, 1, 1, 1, 1]","[1, 1, 1, 1, 1, 1, 1, 1, 1, 1, 1, 1, 1, 1, 1, 1, 1, 1, 1, 1, 1, 1, 1, 1, 1, 1, 1, 1, 1, 1]",3.4784591674804686,3.08397216796875,1.0,1.0,33.80440439999995,None,None,33.80440439999995,None,,,,,,,,,,,,,,,,,,,,,,Letters,001,2022_Jun_16_1127,ErrorStudy_v1,2021.2.3,60.00373223214496,
Letters_1st_Run.xlsx,1,1,0,Eye-tracking is a sensor technolo*zy that can detec*k a person’s presen*ve and follow what they are lookin*b at in real-ti*ne.,0,0,0,0,,,,,,,,,0,0,0,0,7,0,7,0,,,,,,,,,,,,,-996.0,Eye-trac,c,,sentence_trial,"[3.5869903564453125, 3.587188720703125, 3.587188720703125, nan, 3.462432861328125, 3.462432861328125, 3.5163421630859375, 3.5163421630859375, 3.5129852294921875, 3.478240966796875, 3.49285888671875, 3.49285888671875, 3.4424591064453125, 3.4424591064453125, 3.4594268798828125, 3.4594268798828125, 3.5572967529296875, 3.543792724609375, 3.543792724609375, 3.4197845458984375, 3.4671783447265625, 3.4671783447265625, 3.4561004638671875, 3.44610595703125, 3.434417724609375, 3.434417724609375, 3.437042236328125, 3.437042236328125, 3.453094482421875, 3.453094482421875]","[3.086029052734375, 3.0878753662109375, 3.08154296875, 3.0763397216796875, 3.0900115966796875, 3.0900115966796875, 3.0762939453125, 3.0762939453125, 3.094879150390625, 3.082183837890625, 3.2495880126953125, 3.2495880126953125, 3.042022705078125, 3.042022705078125, 3.0573883056640625, 3.0573883056640625, 3.067169189453125, 3.078765869140625, 3.078765869140625, 3.0654296875, 3.04010009765625, 3.04010009765625, 3.0342864990234375, 3.035125732421875, 3.0302581787109375, 3.0302581787109375, 3.016693115234375, 3.016693115234375, 3.0199432373046875, 3.0199432373046875]","[1, 1, 1, 0, 1, 1, 1, 1, 1, 1, 1, 1, 1, 1, 1, 1, 1, 1, 1, 1, 1, 1, 1, 1, 1, 1, 1, 1, 1, 1]","[1, 1, 1, 1, 1, 1, 1, 1, 1, 1, 1, 1, 1, 1, 1, 1, 1, 1, 1, 1, 1, 1, 1, 1, 1, 1, 1, 1, 1, 1]",nan,3.0704330444335937,0.9666666666666667,1.0,34.303775799999926,None,None,34.303775799999926,None,,,,,,,,,,,,,,,,,,,,,,Letters,001,2022_Jun_16_1127,ErrorStudy_v1,2021.2.3,60.00373223214496,
Letters_1st_Run.xlsx,1,1,0,Eye-tracking is a sensor technolo*zy that can detec*k a person’s presen*ve and follow what they are lookin*b at in real-ti*ne.,0,0,0,0,,,,,,,,,0,0,0,0,8,0,8,0,,,,,,,,,,,,,-995.5,Eye-track,k,,sentence_trial,"[3.4420623779296875, 3.437255859375, 3.4337310791015625, 3.4337310791015625, 3.434906005859375, 3.434906005859375, 3.4531402587890625, 3.4531402587890625, 3.454742431640625, 3.454742431640625, 3.4570465087890625, 3.4570465087890625, 3.4594268798828125, 3.4619598388671875, 3.454803466796875, 3.454803466796875, 3.4467926025390625, 3.4467926025390625, 3.4436187744140625, 3.4033050537109375, 3.3979949951171875, 3.4361419677734375, 3.4400787353515625, 3.4400787353515625, 3.436065673828125, 3.4340362548828125, 3.43670654296875, 3.43670654296875, 3.41363525390625, 3.4180908203125]","[3.0365447998046875, 3.0368499755859375, 3.02685546875, 3.02685546875, 3.016571044921875, 3.016571044921875, 3.0307464599609375, 3.0307464599609375, 3.0447845458984375, 3.0447845458984375, 3.032623291015625, 3.032623291015625, 3.029571533203125, 3.0313262939453125, 3.0369415283203125, 3.0369415283203125, 3.02880859375, 3.02880859375, 3.0190887451171875, 3.0289764404296875, 3.0308380126953125, 3.0254974365234375, 3.001220703125, 3.001220703125, 3.0116729736328125, 3.0269775390625, 3.0080108642578125, 3.0080108642578125, 3.0195159912109375, 3.0070343017578125]","[1, 1, 1, 1, 1, 1, 1, 1, 1, 1, 1, 1, 1, 1, 1, 1, 1, 1, 1, 1, 1, 1, 1, 1, 1, 1, 1, 1, 1, 1]","[1, 1, 1, 1, 1, 1, 1, 1, 1, 1, 1, 1, 1, 1, 1, 1, 1, 1, 1, 1, 1, 1, 1, 1, 1, 1, 1, 1, 1, 1]",3.4402496337890627,3.0252339680989584,1.0,1.0,34.80341229999999,None,None,34.80341229999999,None,,,,,,,,,,,,,,,,,,,,,,Letters,001,2022_Jun_16_1127,ErrorStudy_v1,2021.2.3,60.00373223214496,
Letters_1st_Run.xlsx,1,1,0,Eye-tracking is a sensor technolo*zy that can detec*k a person’s presen*ve and follow what they are lookin*b at in real-ti*ne.,0,0,0,0,,,,,,,,,0,0,0,0,9,0,9,0,,,,,,,,,,,,,-995.0,Eye-tracki,i,,sentence_trial,"[3.43768310546875, 3.4356689453125, 3.4302520751953125, 3.4398193359375, 3.4398193359375, 3.4395751953125, 3.4320526123046875, 3.432708740234375, 3.4325714111328125, 3.4495391845703125, 3.4495391845703125, 3.44818115234375, 3.4469146728515625, 3.4362640380859375, 3.4311676025390625, 3.425506591796875, 3.418304443359375, 3.3932647705078125, 3.3932647705078125, 3.39923095703125, 3.3957672119140625, 3.3875732421875, 3.3875732421875, 3.38525390625, 3.4266357421875, 3.4266357421875, 3.4223480224609375, 3.4200592041015625, 3.4134368896484375]","[3.00775146484375, 3.0244598388671875, 3.020172119140625, 3.0173492431640625, 3.0173492431640625, 3.0063323974609375, 2.9929351806640625, 3.002685546875, 3.009765625, 2.969635009765625, 2.969635009765625, 2.981353759765625, 3.00201416015625, 3.009857177734375, 3.0191802978515625, 3.0048828125, 2.999053955078125, 3.013092041015625, 3.013092041015625, 3.0018463134765625, 3.016387939453125, 3.0037994384765625, 3.0037994384765625, 2.994415283203125, 2.9907684326171875, 2.9907684326171875, 2.974334716796875, 2.9802398681640625, 2.991729736328125]","[1, 1, 1, 1, 1, 1, 1, 1, 1, 1, 1, 1, 1, 1, 1, 1, 1, 1, 1, 1, 1, 1, 1, 1, 1, 1, 1, 1, 1]","[1, 1, 1, 1, 1, 1, 1, 1, 1, 1, 1, 1, 1, 1, 1, 1, 1, 1, 1, 1, 1, 1, 1, 1, 1, 1, 1, 1, 1]",3.4233314251077585,3.000989190463362,1.0,1.0,35.3180443,None,None,35.3180443,None,,,,,,,,,,,,,,,,,,,,,,Letters,001,2022_Jun_16_1127,ErrorStudy_v1,2021.2.3,60.00373223214496,
Letters_1st_Run.xlsx,1,1,0,Eye-tracking is a sensor technolo*zy that can detec*k a person’s presen*ve and follow what they are lookin*b at in real-ti*ne.,0,0,0,0,,,,,,,,,0,0,0,0,10,0,10,0,,,,,,,,,,,,,-994.5,Eye-trackin,n,,sentence_trial,"[3.4051971435546875, 3.44140625, 3.4339141845703125, 3.4339141845703125, 3.4232025146484375, 3.421173095703125, 3.4188232421875, 3.4188232421875, 3.41961669921875, 3.41961669921875, 3.4213714599609375, 3.4156341552734375, 3.4156646728515625, 3.4107666015625, 3.404998779296875, 3.4184722900390625, 3.4195404052734375, 3.4195404052734375, 3.409698486328125, 3.409698486328125, 3.510711669921875, 3.524566650390625, 3.4242401123046875, 3.4242401123046875, 3.534271240234375, 3.534271240234375, 3.538238525390625, 3.388336181640625, 3.4243927001953125, 3.4243927001953125]","[2.9851226806640625, 2.97998046875, 2.980926513671875, 2.980926513671875, 2.9512786865234375, 2.9496612548828125, 2.9535369873046875, 2.9535369873046875, 2.9604949951171875, 2.9604949951171875, 2.96630859375, 2.9857635498046875, 2.9925537109375, 2.9819793701171875, 2.9768524169921875, 2.9935455322265625, 2.9818572998046875, 2.9818572998046875, 2.98760986328125, 2.98760986328125, 3.0024566650390625, 2.9791107177734375, 2.9756317138671875, 2.9756317138671875, 2.9997100830078125, 2.9997100830078125, 2.9769287109375, 2.9748992919921875, 2.989776611328125, 2.989776611328125]","[1, 1, 1, 1, 1, 1, 1, 1, 1, 1, 1, 1, 1, 1, 1, 1, 1, 1, 1, 1, 1, 1, 1, 1, 1, 1, 1, 1, 1, 1]","[1, 1, 1, 1, 1, 1, 1, 1, 1, 1, 1, 1, 1, 1, 1, 1, 1, 1, 1, 1, 1, 1, 1, 1, 1, 1, 1, 1, 1, 1]",3.4369578043619793,2.9785176595052083,1.0,1.0,35.80271879999998,None,None,35.80271879999998,None,,,,,,,,,,,,,,,,,,,,,,Letters,001,2022_Jun_16_1127,ErrorStudy_v1,2021.2.3,60.00373223214496,
Letters_1st_Run.xlsx,1,1,0,Eye-tracking is a sensor technolo*zy that can detec*k a person’s presen*ve and follow what they are lookin*b at in real-ti*ne.,0,0,0,0,,,,,,,,,0,0,0,0,11,0,11,0,,,,,,,,,,,,,-994.0,Eye-tracking,g,,sentence_trial,"[3.4175567626953125, 3.421112060546875, 3.4210662841796875, 3.4210662841796875, 3.4192352294921875, 3.4252777099609375, 3.4322052001953125, 3.44110107421875, 3.4451141357421875, 3.446563720703125, 3.4457855224609375, 3.4457855224609375, 3.4510498046875, 3.4589996337890625, 3.4618988037109375, 3.462860107421875, 3.5406494140625, 3.5406494140625, 3.5893096923828125, 3.47454833984375, 3.4719696044921875, 3.46649169921875, 3.457489013671875, 3.4612884521484375, 3.4759063720703125, 3.467010498046875, 3.4492645263671875, 3.4492645263671875, 3.4463348388671875, 3.4361572265625]","[2.9878997802734375, 2.9752044677734375, 2.9994659423828125, 2.9994659423828125, 2.9911651611328125, 2.991851806640625, 2.993804931640625, 2.9998931884765625, 2.990936279296875, 2.995697021484375, 3.0125732421875, 3.0125732421875, 3.0257415771484375, 3.03125, 3.0173187255859375, 3.0268096923828125, 3.0300445556640625, 3.0300445556640625, 3.0301055908203125, 3.0363311767578125, 3.0243072509765625, 3.0262451171875, 3.0305633544921875, 3.023712158203125, 3.0323638916015625, 3.0167694091796875, 3.037506103515625, 3.037506103515625, 3.0337677001953125, 3.0298004150390625]","[1, 1, 1, 1, 1, 1, 1, 1, 1, 1, 1, 1, 1, 1, 1, 1, 1, 1, 1, 1, 1, 1, 1, 1, 1, 1, 1, 1, 1, 1]","[1, 1, 1, 1, 1, 1, 1, 1, 1, 1, 1, 1, 1, 1, 1, 1, 1, 1, 1, 1, 1, 1, 1, 1, 1, 1, 1, 1, 1, 1]",3.4581003824869794,3.0156906127929686,1.0,1.0,36.302357299999926,None,None,36.302357299999926,None,,,,,,,,,,,,,,,,,,,,,,Letters,001,2022_Jun_16_1127,ErrorStudy_v1,2021.2.3,60.00373223214496,
Letters_1st_Run.xlsx,1,1,0,Eye-tracking is a sensor technolo*zy that can detec*k a person’s presen*ve and follow what they are lookin*b at in real-ti*ne.,0,0,0,0,,,,,,,,,0,0,0,0,12,0,12,0,,,,,,,,,,,,,-993.5,Eye-tracking , ,,sentence_trial,"[3.4230804443359375, 3.4080810546875, 3.4080810546875, 3.4113006591796875, 3.4089813232421875, 3.4089813232421875, 3.418731689453125, 3.415252685546875, 3.4112548828125, 3.412933349609375, 3.39971923828125, 3.3983917236328125, 3.4040679931640625, 3.4026031494140625, 3.3975677490234375, 3.39312744140625, 3.392913818359375, 3.3875732421875, 3.3848876953125, 3.38446044921875, 3.3818206787109375, 3.36944580078125, 3.3553924560546875, 3.35992431640625, 3.3760223388671875, 3.377166748046875, 3.3689117431640625, 3.362457275390625, 3.359161376953125, 3.3610076904296875]","[3.0232696533203125, 3.00201416015625, 3.00201416015625, 3.0127716064453125, 3.0050506591796875, 3.0050506591796875, 3.0106964111328125, 3.001953125, 2.996429443359375, 2.996673583984375, 2.9974822998046875, 2.988067626953125, 2.982666015625, 2.988006591796875, 2.993988037109375, 2.9934234619140625, 2.9886627197265625, 2.9796295166015625, 2.97100830078125, 2.9644012451171875, 2.9747467041015625, 2.979034423828125, 2.979095458984375, 2.9705047607421875, 2.957244873046875, 2.9537353515625, 2.955413818359375, 2.9581298828125, 2.965606689453125, 2.9510498046875]","[1, 1, 1, 1, 1, 1, 1, 1, 1, 1, 1, 1, 1, 1, 1, 1, 1, 1, 1, 1, 1, 1, 1, 1, 1, 1, 1, 1, 1, 1]","[1, 1, 1, 1, 1, 1, 1, 1, 1, 1, 1, 1, 1, 1, 1, 1, 1, 1, 1, 1, 1, 1, 1, 1, 1, 1, 1, 1, 1, 1]",3.391443379720052,2.9849273681640627,1.0,1.0,36.800785099999985,None,None,36.800785099999985,None,,,,,,,,,,,,,,,,,,,,,,Letters,001,2022_Jun_16_1127,ErrorStudy_v1,2021.2.3,60.00373223214496,
Letters_1st_Run.xlsx,1,1,0,Eye-tracking is a sensor technolo*zy that can detec*k a person’s presen*ve and follow what they are lookin*b at in real-ti*ne.,0,0,0,0,,,,,,,,,0,0,0,0,13,0,13,0,,,,,,,,,,,,,-993.0,Eye-tracking i,i,,sentence_trial,"[3.362457275390625, 3.3577880859375, 3.365478515625, 3.365478515625, 3.3625030517578125, 3.3601531982421875, 3.360504150390625, 3.3271636962890625, 3.310089111328125, 3.335235595703125, 3.35400390625, 3.3600616455078125, 3.351806640625, 3.3424072265625, 3.3405914306640625, 3.339447021484375, 3.3400726318359375, 3.3400726318359375, 3.3245849609375, 3.3245849609375, 3.3317413330078125, 3.3340911865234375, 3.328948974609375, 3.328948974609375, 3.3358001708984375, 3.335784912109375, 3.330322265625, 3.3214111328125, 3.3101959228515625, 3.3048095703125]","[2.9503173828125, 2.939178466796875, 2.9383087158203125, 2.9383087158203125, 2.9559783935546875, 2.9523162841796875, 2.9323272705078125, 2.9368133544921875, 2.92340087890625, 2.9252471923828125, 2.95477294921875, 2.9553985595703125, 2.926361083984375, 2.9307861328125, 2.9394378662109375, 2.9171905517578125, 2.938446044921875, 2.938446044921875, 2.959808349609375, 2.959808349609375, 2.96099853515625, 2.9376220703125, 2.9130096435546875, 2.9130096435546875, 2.9221343994140625, 2.9288330078125, 2.9328460693359375, 2.9369354248046875, 2.9299468994140625, 2.929168701171875]","[1, 1, 1, 1, 1, 1, 1, 1, 1, 1, 1, 1, 1, 1, 1, 1, 1, 1, 1, 1, 1, 1, 1, 1, 1, 1, 1, 1, 1, 1]","[1, 1, 1, 1, 1, 1, 1, 1, 1, 1, 1, 1, 1, 1, 1, 1, 1, 1, 1, 1, 1, 1, 1, 1, 1, 1, 1, 1, 1, 1]",3.3395512898763022,2.937238566080729,1.0,1.0,37.300723099999914,None,None,37.300723099999914,None,,,,,,,,,,,,,,,,,,,,,,Letters,001,2022_Jun_16_1127,ErrorStudy_v1,2021.2.3,60.00373223214496,
Letters_1st_Run.xlsx,1,1,0,Eye-tracking is a sensor technolo*zy that can detec*k a person’s presen*ve and follow what they are lookin*b at in real-ti*ne.,0,0,0,0,,,,,,,,,0,0,0,0,14,0,14,0,,,,,,,,,,,,,-992.5,Eye-tracking is,s,,sentence_trial,"[3.3090362548828125, 3.3231048583984375, 3.3231048583984375, 3.313995361328125, 3.2993316650390625, 3.3132781982421875, 3.3260498046875, 3.3180389404296875, 3.3171844482421875, 3.3197784423828125, 3.312957763671875, 3.31610107421875, 3.316070556640625, 3.30767822265625, 3.3128509521484375, 3.310638427734375, 3.312164306640625, 3.3164215087890625, 3.3024139404296875, 3.284881591796875, 3.2833709716796875, 3.255615234375, 3.261138916015625, 3.292449951171875, 3.2915802001953125, 3.2797088623046875, 3.2726593017578125, 3.2712860107421875, 3.2816925048828125, 3.2800750732421875]","[2.9383544921875, 2.93206787109375, 2.93206787109375, 2.9355621337890625, 2.941009521484375, 2.939971923828125, 2.9444427490234375, 2.947174072265625, 2.9536285400390625, 2.9551544189453125, 2.951873779296875, 2.9509124755859375, 2.9256744384765625, 2.9365692138671875, 2.9643402099609375, 2.9511871337890625, 2.921142578125, 2.8994293212890625, 2.930267333984375, 2.93841552734375, 2.9257659912109375, 2.9261016845703125, 2.91912841796875, 2.9195709228515625, 2.9136810302734375, 2.892486572265625, 2.9102020263671875, 2.9223480224609375, 2.9129180908203125, 2.9137725830078125]","[1, 1, 1, 1, 1, 1, 1, 1, 1, 1, 1, 1, 1, 1, 1, 1, 1, 1, 1, 1, 1, 1, 1, 1, 1, 1, 1, 1, 1, 1]","[1, 1, 1, 1, 1, 1, 1, 1, 1, 1, 1, 1, 1, 1, 1, 1, 1, 1, 1, 1, 1, 1, 1, 1, 1, 1, 1, 1, 1, 1]",3.3008219401041665,2.931507364908854,1.0,1.0,37.80032559999995,None,None,37.80032559999995,None,,,,,,,,,,,,,,,,,,,,,,Letters,001,2022_Jun_16_1127,ErrorStudy_v1,2021.2.3,60.00373223214496,
Letters_1st_Run.xlsx,1,1,0,Eye-tracking is a sensor technolo*zy that can detec*k a person’s presen*ve and follow what they are lookin*b at in real-ti*ne.,0,0,0,0,,,,,,,,,0,0,0,0,15,0,15,0,,,,,,,,,,,,,-992.0,Eye-tracking is , ,,sentence_trial,"[3.262939453125, 3.28033447265625, 3.28033447265625, 3.2763214111328125, 3.2794036865234375, 3.27386474609375, 3.27618408203125, 3.3990325927734375, 3.3939971923828125, 3.3939971923828125, nan, 3.2501373291015625, 3.286895751953125, 3.2938385009765625, 3.2984619140625, 3.3021392822265625, 3.3110504150390625, 3.303436279296875, 3.3036956787109375, 3.3082275390625, 3.3116912841796875, 3.32025146484375, 3.3256988525390625, 3.3280181884765625, 3.331939697265625, 3.32489013671875, 3.3222503662109375, 3.3380279541015625, 3.3310546875, 3.3345947265625]","[2.9228363037109375, 2.90106201171875, 2.90106201171875, 2.909637451171875, 2.8960418701171875, 2.894134521484375, 2.90789794921875, 2.913116455078125, 2.91156005859375, 2.9253692626953125, 2.920745849609375, 2.9148712158203125, 2.9204864501953125, 2.9146881103515625, 2.9004974365234375, 2.9104156494140625, 2.9288482666015625, 2.935577392578125, 2.9457855224609375, 2.9463043212890625, 2.9449005126953125, 2.947265625, 2.94964599609375, 2.941986083984375, 2.9402008056640625, 2.949005126953125, 2.9439239501953125, 2.9526824951171875, 2.955841064453125, 2.959991455078125]","[1, 1, 1, 1, 1, 1, 1, 1, 1, 1, 0, 1, 1, 1, 1, 1, 1, 1, 1, 1, 1, 1, 1, 1, 1, 1, 1, 1, 1, 1]","[1, 1, 1, 1, 1, 1, 1, 1, 1, 1, 1, 1, 1, 1, 1, 1, 1, 1, 1, 1, 1, 1, 1, 1, 1, 1, 1, 1, 1, 1]",nan,2.926879374186198,0.9666666666666667,1.0,38.29993009999998,None,None,38.29993009999998,None,,,,,,,,,,,,,,,,,,,,,,Letters,001,2022_Jun_16_1127,ErrorStudy_v1,2021.2.3,60.00373223214496,
Letters_1st_Run.xlsx,1,1,0,Eye-tracking is a sensor technolo*zy that can detec*k a person’s presen*ve and follow what they are lookin*b at in real-ti*ne.,0,0,0,0,,,,,,,,,0,0,0,0,16,0,16,0,,,,,,,,,,,,,-991.5,Eye-tracking is a,a,,sentence_trial,"[3.3400421142578125, 3.337005615234375, 3.337005615234375, 3.3441619873046875, 3.3501434326171875, 3.3338470458984375, 3.33465576171875, 3.3533477783203125, 3.3474884033203125, 3.340728759765625, 3.3396148681640625, 3.3385772705078125, 3.337646484375, 3.3378143310546875, 3.3472900390625, 3.343902587890625, 3.3459014892578125, 3.352203369140625, 3.3484649658203125, 3.3488006591796875, 3.3303070068359375, 3.3356170654296875, 3.3651275634765625, 3.34722900390625, 3.33453369140625, 3.356201171875, 3.3580322265625, 3.3441619873046875, 3.3367462158203125, 3.335540771484375]","[2.953643798828125, 2.9478607177734375, 2.9478607177734375, 2.947113037109375, 2.9551849365234375, 2.94976806640625, 2.9435882568359375, 2.961334228515625, 2.9635162353515625, 2.9492034912109375, 2.9468994140625, 2.9478912353515625, 2.9385223388671875, 2.93450927734375, 2.949859619140625, 2.957489013671875, 2.9500579833984375, 2.9350433349609375, 2.9421539306640625, 2.9478759765625, 2.951385498046875, 2.9501190185546875, 2.9442596435546875, 2.9521484375, 2.9535369873046875, 2.9461212158203125, 2.9517364501953125, 2.9456939697265625, 2.9183349609375, 2.9272613525390625]","[1, 1, 1, 1, 1, 1, 1, 1, 1, 1, 1, 1, 1, 1, 1, 1, 1, 1, 1, 1, 1, 1, 1, 1, 1, 1, 1, 1, 1, 1]","[1, 1, 1, 1, 1, 1, 1, 1, 1, 1, 1, 1, 1, 1, 1, 1, 1, 1, 1, 1, 1, 1, 1, 1, 1, 1, 1, 1, 1, 1]",3.3434046427408854,2.946999104817708,1.0,1.0,38.79896469999994,None,None,38.79896469999994,None,,,,,,,,,,,,,,,,,,,,,,Letters,001,2022_Jun_16_1127,ErrorStudy_v1,2021.2.3,60.00373223214496,
Letters_1st_Run.xlsx,1,1,0,Eye-tracking is a sensor technolo*zy that can detec*k a person’s presen*ve and follow what they are lookin*b at in real-ti*ne.,0,0,0,0,,,,,,,,,0,0,0,0,17,0,17,0,,,,,,,,,,,,,-991.0,Eye-tracking is a , ,,sentence_trial,"[3.2939453125, nan, nan, nan, nan, 3.0489044189453125, 3.1721343994140625, 3.3425750732421875, 3.3209991455078125, 3.306427001953125, 3.325164794921875, 3.3372802734375, 3.338165283203125, 3.3355255126953125, 3.337890625, 3.3357391357421875, 3.3267364501953125, 3.332244873046875, 3.337310791015625, 3.3406524658203125, 3.35015869140625, 3.353759765625, 3.3643646240234375, 3.3586883544921875, 3.3441619873046875, 3.351104736328125, 3.3441009521484375, 3.341217041015625, 3.336944580078125, 3.310546875]","[2.8871002197265625, nan, nan, nan, nan, 2.7012786865234375, 2.7939453125, 2.9301910400390625, 2.9440155029296875, 2.92279052734375, 2.9221649169921875, 2.9425811767578125, 2.9364013671875, 2.939544677734375, 2.9500732421875, 2.9409027099609375, 2.958984375, 2.9672088623046875, 2.95123291015625, 2.9586639404296875, 2.94659423828125, 2.9408416748046875, 2.944000244140625, 2.9482421875, 2.949432373046875, 2.9444122314453125, 2.9396209716796875, 2.92999267578125, 2.933746337890625, 2.929443359375]","[1, 0, 0, 0, 0, 1, 1, 1, 1, 1, 1, 1, 1, 1, 1, 1, 1, 1, 1, 1, 1, 1, 1, 1, 1, 1, 1, 1, 1, 1]","[1, 0, 0, 0, 0, 1, 1, 1, 1, 1, 1, 1, 1, 1, 1, 1, 1, 1, 1, 1, 1, 1, 1, 1, 1, 1, 1, 1, 1, 1]",nan,nan,0.8666666666666667,0.8666666666666667,39.2991098,None,None,39.2991098,None,,,,,,,,,,,,,,,,,,,,,,Letters,001,2022_Jun_16_1127,ErrorStudy_v1,2021.2.3,60.00373223214496,
Letters_1st_Run.xlsx,1,1,0,Eye-tracking is a sensor technolo*zy that can detec*k a person’s presen*ve and follow what they are lookin*b at in real-ti*ne.,0,0,0,0,,,,,,,,,0,0,0,0,18,0,18,0,,,,,,,,,,,,,-990.5,Eye-tracking is a s,s,,sentence_trial,"[3.3193206787109375, 3.3084869384765625, 3.29351806640625, 3.26580810546875, 3.24700927734375, 3.227569580078125, 3.2203826904296875, 3.2129364013671875, 3.2132568359375, 3.20635986328125, 3.192718505859375, 3.1822052001953125, 3.1805267333984375, 3.1659393310546875, 3.1758270263671875, 3.1718292236328125, 3.1697998046875, 3.170013427734375, 3.1551666259765625, 3.1577911376953125, 3.1583404541015625, 3.15179443359375, 3.1590576171875, 3.1805572509765625, 3.1761322021484375, 3.1673126220703125, 3.16876220703125, 3.17205810546875, 3.1977691650390625, 3.2079315185546875]","[2.9268341064453125, 2.899749755859375, 2.88690185546875, 2.8707122802734375, 2.8724212646484375, 2.862579345703125, 2.8572845458984375, 2.85430908203125, 2.8494873046875, 2.832855224609375, 2.8433685302734375, 2.84356689453125, 2.8201751708984375, 2.8193359375, 2.8316650390625, 2.806976318359375, 2.792236328125, 2.8160400390625, 2.8112945556640625, 2.7982940673828125, 2.811676025390625, 2.8230743408203125, 2.8386383056640625, 2.8472747802734375, 2.84039306640625, 2.8358306884765625, 2.820098876953125, 2.82659912109375, 2.8278350830078125, 2.8331451416015625]","[1, 1, 1, 1, 1, 1, 1, 1, 1, 1, 1, 1, 1, 1, 1, 1, 1, 1, 1, 1, 1, 1, 1, 1, 1, 1, 1, 1, 1, 1]","[1, 1, 1, 1, 1, 1, 1, 1, 1, 1, 1, 1, 1, 1, 1, 1, 1, 1, 1, 1, 1, 1, 1, 1, 1, 1, 1, 1, 1, 1]",3.1992060343424478,2.840021769205729,1.0,1.0,39.79810449999991,None,None,39.79810449999991,None,,,,,,,,,,,,,,,,,,,,,,Letters,001,2022_Jun_16_1127,ErrorStudy_v1,2021.2.3,60.00373223214496,
Letters_1st_Run.xlsx,1,1,0,Eye-tracking is a sensor technolo*zy that can detec*k a person’s presen*ve and follow what they are lookin*b at in real-ti*ne.,0,0,0,0,,,,,,,,,0,0,0,0,19,0,19,0,,,,,,,,,,,,,-990.0,Eye-tracking is a se,e,,sentence_trial,"[3.2000732421875, 3.195404052734375, 3.184783935546875, 3.181365966796875, 3.199005126953125, 3.2090606689453125, 3.1931610107421875, 3.2058258056640625, 3.2102508544921875, 3.2174530029296875, 3.234130859375, 3.2408599853515625, 3.2380523681640625, 3.2386627197265625, 3.238616943359375, 3.245574951171875, 3.23931884765625, 3.2354736328125, 3.24664306640625, 3.2545623779296875, 3.2471160888671875, 3.241546630859375, 3.246612548828125, 3.2297515869140625, 3.2225799560546875, 3.23095703125, 3.2269287109375, 3.238250732421875, 3.237884521484375, 3.2216796875]","[2.853790283203125, 2.87176513671875, 2.8646697998046875, 2.8585968017578125, 2.8657379150390625, 2.877410888671875, 2.8765869140625, 2.8858489990234375, 2.895660400390625, 2.8934783935546875, 2.8856658935546875, 2.8986968994140625, 2.89599609375, 2.9019012451171875, 2.9118194580078125, 2.9085235595703125, 2.9153594970703125, 2.908477783203125, 2.9244232177734375, 2.942108154296875, 2.9268951416015625, 2.92059326171875, 2.9199676513671875, 2.9242706298828125, 2.929534912109375, 2.9149017333984375, 2.908599853515625, 2.9047088623046875, 2.9083099365234375, 2.9158782958984375]","[1, 1, 1, 1, 1, 1, 1, 1, 1, 1, 1, 1, 1, 1, 1, 1, 1, 1, 1, 1, 1, 1, 1, 1, 1, 1, 1, 1, 1, 1]","[1, 1, 1, 1, 1, 1, 1, 1, 1, 1, 1, 1, 1, 1, 1, 1, 1, 1, 1, 1, 1, 1, 1, 1, 1, 1, 1, 1, 1, 1]",3.225052897135417,2.9003392537434896,1.0,1.0,40.2980268,None,None,40.2980268,None,,,,,,,,,,,,,,,,,,,,,,Letters,001,2022_Jun_16_1127,ErrorStudy_v1,2021.2.3,60.00373223214496,
Letters_1st_Run.xlsx,1,1,0,Eye-tracking is a sensor technolo*zy that can detec*k a person’s presen*ve and follow what they are lookin*b at in real-ti*ne.,0,0,0,0,,,,,,,,,0,0,0,0,20,0,20,0,,,,,,,,,,,,,-989.5,Eye-tracking is a sen,n,,sentence_trial,"[3.21624755859375, 3.22064208984375, 3.229766845703125, 3.2210845947265625, 3.204498291015625, 3.1995391845703125, 3.203369140625, 3.22064208984375, 3.2169342041015625, 3.21466064453125, 3.224334716796875, 3.3079833984375, 3.29931640625, 3.2364654541015625, 3.25921630859375, 3.2631072998046875, 3.268463134765625, 3.380615234375, 3.3632049560546875, 3.291595458984375, 3.3120269775390625, 3.3251495361328125, 3.3242950439453125, 3.29583740234375, 3.28619384765625, 3.3201141357421875, 3.3313140869140625, 3.3085479736328125, 3.2847747802734375, 3.3054656982421875]","[2.8997039794921875, 2.8819122314453125, 2.8830108642578125, 2.880401611328125, 2.8918609619140625, 2.899993896484375, 2.89703369140625, 2.8969879150390625, 2.886627197265625, 2.90338134765625, 2.9079132080078125, 3.020751953125, 3.036590576171875, 2.9222412109375, 2.928741455078125, 2.924224853515625, 2.9264984130859375, 2.9497222900390625, 2.949859619140625, 2.9478759765625, 2.9611053466796875, 2.9686279296875, 2.9658966064453125, 2.9773101806640625, 2.9822540283203125, 2.9812774658203125, 2.976531982421875, 2.982208251953125, 2.9870758056640625, 2.988861083984375]","[1, 1, 1, 1, 1, 1, 1, 1, 1, 1, 1, 1, 1, 1, 1, 1, 1, 1, 1, 1, 1, 1, 1, 1, 1, 1, 1, 1, 1, 1]","[1, 1, 1, 1, 1, 1, 1, 1, 1, 1, 1, 1, 1, 1, 1, 1, 1, 1, 1, 1, 1, 1, 1, 1, 1, 1, 1, 1, 1, 1]",3.2711802164713544,2.940216064453125,1.0,1.0,40.7969071,None,None,40.7969071,None,,,,,,,,,,,,,,,,,,,,,,Letters,001,2022_Jun_16_1127,ErrorStudy_v1,2021.2.3,60.00373223214496,
Letters_1st_Run.xlsx,1,1,0,Eye-tracking is a sensor technolo*zy that can detec*k a person’s presen*ve and follow what they are lookin*b at in real-ti*ne.,0,0,0,0,,,,,,,,,0,0,0,0,21,0,21,0,,,,,,,,,,,,,-989.0,Eye-tracking is a sens,s,,sentence_trial,"[3.3116302490234375, 3.3047027587890625, 3.30841064453125, 3.3101654052734375, 3.3161468505859375, 3.3201751708984375, 3.318023681640625, 3.312347412109375, 3.3128509521484375, 3.3061676025390625, 3.297607421875, 3.29693603515625, 3.3044281005859375, 3.312225341796875, 3.3128662109375, 3.3072357177734375, 3.3041534423828125, 3.31695556640625, 3.336639404296875, 3.343109130859375, 3.330810546875, 3.3344268798828125, 3.3310699462890625, 3.3309326171875, 3.3496551513671875, 3.3404083251953125, 3.3446807861328125, 3.3498992919921875, 3.3338165283203125, 3.326080322265625, 3.328369140625]","[2.9875030517578125, 2.97381591796875, 2.9616241455078125, 2.9649505615234375, 2.9727783203125, 2.962158203125, 2.9617919921875, 2.9520721435546875, 2.9391021728515625, 2.9542388916015625, 2.9762115478515625, 2.9769287109375, 2.9765167236328125, 2.973663330078125, 2.9517059326171875, 2.9452362060546875, 2.95709228515625, 2.9671630859375, 2.9619903564453125, 2.962554931640625, 2.968109130859375, 2.953399658203125, 2.977325439453125, 2.99798583984375, 2.971221923828125, 2.962890625, 2.984130859375, 2.9817657470703125, 2.9713287353515625, 2.967193603515625, 2.9472503662109375]","[1, 1, 1, 1, 1, 1, 1, 1, 1, 1, 1, 1, 1, 1, 1, 1, 1, 1, 1, 1, 1, 1, 1, 1, 1, 1, 1, 1, 1, 1, 1]","[1, 1, 1, 1, 1, 1, 1, 1, 1, 1, 1, 1, 1, 1, 1, 1, 1, 1, 1, 1, 1, 1, 1, 1, 1, 1, 1, 1, 1, 1, 1]",3.3210621495400705,2.9665064657888105,1.0,1.0,41.29673969999999,None,None,41.29673969999999,None,,,,,,,,,,,,,,,,,,,,,,Letters,001,2022_Jun_16_1127,ErrorStudy_v1,2021.2.3,60.00373223214496,
Letters_1st_Run.xlsx,1,1,0,Eye-tracking is a sensor technolo*zy that can detec*k a person’s presen*ve and follow what they are lookin*b at in real-ti*ne.,0,0,0,0,,,,,,,,,0,0,0,0,22,0,22,0,,,,,,,,,,,,,-988.5,Eye-tracking is a senso,o,,sentence_trial,"[3.328369140625, 3.353424072265625, 3.3356475830078125, 3.3062896728515625, 3.314849853515625, 3.302886962890625, 3.296234130859375, 3.3149261474609375, 3.308074951171875, 3.3009033203125, 3.29229736328125, 3.280517578125, 3.28948974609375, 3.299163818359375, 3.30731201171875, 3.3040618896484375, 3.2979736328125, 3.3017425537109375, 3.313751220703125, 3.3075714111328125, 3.309906005859375, 3.314849853515625, 3.305511474609375, 3.31817626953125, 3.3311309814453125, 3.321868896484375, 3.297576904296875, 3.2976837158203125, 3.326629638671875, 3.3251190185546875]","[2.9472503662109375, 2.9591064453125, 2.961395263671875, 2.973297119140625, 2.9693450927734375, 2.9623565673828125, 2.9668731689453125, 2.96978759765625, 2.9665069580078125, 2.9495391845703125, 2.9486083984375, 2.9593963623046875, 2.9407806396484375, 2.960235595703125, 2.9747161865234375, 2.9504241943359375, 2.9606781005859375, 2.9681396484375, 2.9554290771484375, 2.9572601318359375, 2.966552734375, 2.94891357421875, 2.9486846923828125, 2.955535888671875, 2.95068359375, 2.9581146240234375, 2.9641876220703125, 2.9749908447265625, 2.9858551025390625, 2.9743499755859375]","[1, 1, 1, 1, 1, 1, 1, 1, 1, 1, 1, 1, 1, 1, 1, 1, 1, 1, 1, 1, 1, 1, 1, 1, 1, 1, 1, 1, 1, 1]","[1, 1, 1, 1, 1, 1, 1, 1, 1, 1, 1, 1, 1, 1, 1, 1, 1, 1, 1, 1, 1, 1, 1, 1, 1, 1, 1, 1, 1, 1]",3.310131327311198,2.9609664916992187,1.0,1.0,41.811567099999934,41.811567099999934,None,41.811567099999934,41.811567099999934,,,,,,,,,,,,,,,,,,,,,,Letters,001,2022_Jun_16_1127,ErrorStudy_v1,2021.2.3,60.00373223214496,
Letters_1st_Run.xlsx,1,1,0,Eye-tracking is a sensor technolo*zy that can detec*k a person’s presen*ve and follow what they are lookin*b at in real-ti*ne.,0,0,0,0,,,,,,,,,0,0,0,0,23,0,23,0,,,,,,,,,,,,,-988.0,Eye-tracking is a sensor,r,,sentence_trial,"[3.32269287109375, 3.32244873046875, 3.32257080078125, 3.317474365234375, 3.31341552734375, 3.3150177001953125, 3.322021484375, 3.3326263427734375, 3.3127899169921875, 3.32086181640625, 3.3327178955078125, 3.3296356201171875, 3.33953857421875, 3.3315277099609375, 3.3169403076171875, 3.3054351806640625, 3.32562255859375, 3.336395263671875, 3.318572998046875, 3.2990875244140625, 3.3005218505859375, 3.3159942626953125, 3.310699462890625, 3.306182861328125, 3.300994873046875, 3.30377197265625, 3.2982635498046875, 3.2880859375, 3.2884979248046875, 3.2957000732421875]","[2.9652252197265625, 2.9721221923828125, 2.979461669921875, 2.9760284423828125, 2.9811553955078125, 2.978363037109375, 2.9674530029296875, 2.9731292724609375, 2.980621337890625, 2.9800567626953125, 2.9713134765625, 2.9683685302734375, 2.9653472900390625, 2.9611968994140625, 3.0741729736328125, 3.0353240966796875, 2.95794677734375, 2.9683685302734375, 2.956817626953125, 2.97174072265625, 2.96148681640625, 2.948974609375, 2.9478302001953125, 2.95697021484375, 2.9683837890625, 2.9678955078125, 2.9648895263671875, 2.9626922607421875, 2.9694366455078125, 2.9660797119140625]","[1, 1, 1, 1, 1, 1, 1, 1, 1, 1, 1, 1, 1, 1, 1, 1, 1, 1, 1, 1, 1, 1, 1, 1, 1, 1, 1, 1, 1, 1]","[1, 1, 1, 1, 1, 1, 1, 1, 1, 1, 1, 1, 1, 1, 1, 1, 1, 1, 1, 1, 1, 1, 1, 1, 1, 1, 1, 1, 1, 1]",3.3148701985677085,2.9732950846354167,1.0,1.0,42.31235879999997,None,None,42.31235879999997,None,,,,,,,,,,,,,,,,,,,,,,Letters,001,2022_Jun_16_1127,ErrorStudy_v1,2021.2.3,60.00373223214496,
Letters_1st_Run.xlsx,1,1,0,Eye-tracking is a sensor technolo*zy that can detec*k a person’s presen*ve and follow what they are lookin*b at in real-ti*ne.,0,0,0,0,,,,,,,,,0,0,0,0,24,0,24,0,,,,,,,,,,,,,-987.5,Eye-tracking is a sensor , ,,sentence_trial,"[3.3018646240234375, 3.3074798583984375, 3.30859375, 3.3018646240234375, 3.304168701171875, 3.3107147216796875, 3.28558349609375, 3.283355712890625, 3.315765380859375, 3.320770263671875, 3.326507568359375, 3.3325958251953125, 3.32562255859375, 3.323089599609375, 3.289825439453125, 3.290252685546875, 3.32965087890625, 3.32415771484375, 3.319061279296875, 3.33038330078125, 3.3362579345703125, 3.32135009765625, 3.3257293701171875, 3.3207855224609375, 3.3093109130859375, 3.3121795654296875, 3.316650390625, 3.34356689453125, 3.3408660888671875, 3.3133544921875]","[2.9654388427734375, 2.9806671142578125, 2.9781341552734375, 2.970947265625, 2.958221435546875, 2.937835693359375, 2.9411773681640625, 2.9471893310546875, 2.96197509765625, 2.964874267578125, 2.9693450927734375, 2.975372314453125, 2.96124267578125, 2.961334228515625, 2.97320556640625, 2.990753173828125, 2.988189697265625, 2.980438232421875, 2.9727325439453125, 2.9671173095703125, 2.9741973876953125, 2.9566650390625, 2.948089599609375, 2.9582672119140625, 2.9594268798828125, 2.9589996337890625, 2.95843505859375, 2.9595489501953125, 2.9564056396484375, 2.9564361572265625]","[1, 1, 1, 1, 1, 1, 1, 1, 1, 1, 1, 1, 1, 1, 1, 1, 1, 1, 1, 1, 1, 1, 1, 1, 1, 1, 1, 1, 1, 1]","[1, 1, 1, 1, 1, 1, 1, 1, 1, 1, 1, 1, 1, 1, 1, 1, 1, 1, 1, 1, 1, 1, 1, 1, 1, 1, 1, 1, 1, 1]",3.3157119750976562,2.964422098795573,1.0,1.0,42.81153219999999,None,None,42.81153219999999,None,,,,,,,,,,,,,,,,,,,,,,Letters,001,2022_Jun_16_1127,ErrorStudy_v1,2021.2.3,60.00373223214496,
Letters_1st_Run.xlsx,1,1,0,Eye-tracking is a sensor technolo*zy that can detec*k a person’s presen*ve and follow what they are lookin*b at in real-ti*ne.,0,0,0,0,,,,,,,,,0,0,0,0,25,0,25,0,,,,,,,,,,,,,-987.0,Eye-tracking is a sensor t,t,,sentence_trial,"[3.321563720703125, 3.323944091796875, 3.321197509765625, 3.3326263427734375, 3.32403564453125, 3.3216094970703125, 3.3360443115234375, 3.3274993896484375, 3.3355560302734375, 3.3455657958984375, 3.311981201171875, 3.3101348876953125, 3.360870361328125, 3.3921356201171875, 3.392608642578125, 3.3741912841796875, 3.3714447021484375, 3.3714599609375, 3.3813934326171875, 3.38287353515625, 3.376953125, 3.371551513671875, 3.37957763671875, 3.3693084716796875, 3.3589935302734375, 3.3632354736328125, 3.3511199951171875, 3.346343994140625, 3.3300323486328125, 3.3365631103515625]","[2.959014892578125, 2.9683685302734375, 2.970489501953125, 2.977447509765625, 2.9793701171875, 2.96832275390625, 2.9761810302734375, 2.9767913818359375, 2.980316162109375, 2.9771881103515625, 2.983917236328125, 2.998931884765625, 3.0142822265625, 3.01715087890625, 3.012054443359375, 2.9922332763671875, 2.989837646484375, 2.9896240234375, 2.998443603515625, 3.01873779296875, 3.0185394287109375, 3.0211181640625, 3.0310821533203125, 3.023162841796875, 3.0146484375, 3.0096435546875, 2.9961090087890625, 2.9894866943359375, 2.985382080078125, 2.9871063232421875]","[1, 1, 1, 1, 1, 1, 1, 1, 1, 1, 1, 1, 1, 1, 1, 1, 1, 1, 1, 1, 1, 1, 1, 1, 1, 1, 1, 1, 1, 1]","[1, 1, 1, 1, 1, 1, 1, 1, 1, 1, 1, 1, 1, 1, 1, 1, 1, 1, 1, 1, 1, 1, 1, 1, 1, 1, 1, 1, 1, 1]",3.3507471720377606,2.994166056315104,1.0,1.0,43.31118839999999,None,None,43.31118839999999,None,,,,,,,,,,,,,,,,,,,,,,Letters,001,2022_Jun_16_1127,ErrorStudy_v1,2021.2.3,60.00373223214496,
Letters_1st_Run.xlsx,1,1,0,Eye-tracking is a sensor technolo*zy that can detec*k a person’s presen*ve and follow what they are lookin*b at in real-ti*ne.,0,0,0,0,,,,,,,,,0,0,0,0,26,0,26,0,,,,,,,,,,,,,-986.5,Eye-tracking is a sensor te,e,,sentence_trial,"[3.325439453125, 3.3090362548828125, 3.30841064453125, 3.311981201171875, 3.3082122802734375, 3.3028717041015625, 3.3043975830078125, 3.31341552734375, 3.307159423828125, 3.308319091796875, 3.3070526123046875, 3.286041259765625, 3.2829742431640625, 3.2883758544921875, 3.2864532470703125, 3.2985076904296875, 3.298919677734375, 3.30133056640625, 3.1848907470703125, 3.07421875, nan, nan, nan, nan, 2.272064208984375, 2.272064208984375, 3.220184326171875, 3.27288818359375, 3.3070831298828125, 3.3014373779296875]","[2.9788970947265625, 2.9664764404296875, 2.9583892822265625, 2.96630859375, 2.9615936279296875, 2.9636077880859375, 2.960540771484375, 2.9444427490234375, 2.9420166015625, 2.9540557861328125, 2.955535888671875, 2.965972900390625, 2.966064453125, 2.9572906494140625, 2.9620208740234375, 2.9707183837890625, 2.976470947265625, 2.975006103515625, 2.8794403076171875, 2.7587127685546875, nan, nan, nan, nan, nan, nan, 2.85614013671875, 2.9059295654296875, 2.9507904052734375, 2.9562835693359375]","[1, 1, 1, 1, 1, 1, 1, 1, 1, 1, 1, 1, 1, 1, 1, 1, 1, 1, 1, 1, 0, 0, 0, 0, 1, 1, 1, 1, 1, 1]","[1, 1, 1, 1, 1, 1, 1, 1, 1, 1, 1, 1, 1, 1, 1, 1, 1, 1, 1, 1, 0, 0, 0, 0, 0, 0, 1, 1, 1, 1]",nan,nan,0.8666666666666667,0.8,43.81007319999992,None,None,43.81007319999992,None,,,,,,,,,,,,,,,,,,,,,,Letters,001,2022_Jun_16_1127,ErrorStudy_v1,2021.2.3,60.00373223214496,
Letters_1st_Run.xlsx,1,1,0,Eye-tracking is a sensor technolo*zy that can detec*k a person’s presen*ve and follow what they are lookin*b at in real-ti*ne.,0,0,0,0,,,,,,,,,0,0,0,0,27,0,27,0,,,,,,,,,,,,,-986.0,Eye-tracking is a sensor tec,c,,sentence_trial,"[3.2937774658203125, 3.29571533203125, 3.3016510009765625, 3.3061370849609375, 3.3106536865234375, 3.3078765869140625, 3.3089752197265625, 3.31610107421875, 3.3150787353515625, 3.3217010498046875, 3.325042724609375, 3.31793212890625, 3.312469482421875, 3.314727783203125, 3.312652587890625, 3.3026580810546875, 3.2805023193359375, 3.2760467529296875, 3.2652740478515625, 3.254241943359375, 3.2328948974609375, 3.244964599609375, 3.2257080078125, 3.198211669921875, 3.1833648681640625, 3.1826019287109375, 3.172454833984375, 3.1767730712890625, 3.1608428955078125, 3.14129638671875]","[2.9628753662109375, 2.975555419921875, 2.9691009521484375, 2.9755401611328125, 2.9802703857421875, 2.9705047607421875, 2.959808349609375, 2.9607391357421875, 2.9597625732421875, 2.9693145751953125, 2.982391357421875, 2.978668212890625, 2.9698333740234375, 2.9786529541015625, 2.975372314453125, 2.9647369384765625, 2.9373626708984375, 2.9279022216796875, 2.9189300537109375, 2.8999481201171875, 2.884857177734375, 2.879241943359375, 2.866851806640625, 2.8497467041015625, 2.8349761962890625, 2.84954833984375, 2.8260498046875, 2.811370849609375, 2.8153076171875, 2.8092041015625]","[1, 1, 1, 1, 1, 1, 1, 1, 1, 1, 1, 1, 1, 1, 1, 1, 1, 1, 1, 1, 1, 1, 1, 1, 1, 1, 1, 1, 1, 1]","[1, 1, 1, 1, 1, 1, 1, 1, 1, 1, 1, 1, 1, 1, 1, 1, 1, 1, 1, 1, 1, 1, 1, 1, 1, 1, 1, 1, 1, 1]",3.265277608235677,2.9214808146158853,1.0,1.0,44.31038530000001,None,None,44.31038530000001,None,,,,,,,,,,,,,,,,,,,,,,Letters,001,2022_Jun_16_1127,ErrorStudy_v1,2021.2.3,60.00373223214496,
Letters_1st_Run.xlsx,1,1,0,Eye-tracking is a sensor technolo*zy that can detec*k a person’s presen*ve and follow what they are lookin*b at in real-ti*ne.,0,0,0,0,,,,,,,,,0,0,0,0,28,0,28,0,,,,,,,,,,,,,-985.5,Eye-tracking is a sensor tech,h,,sentence_trial,"[3.132537841796875, 3.1433258056640625, 3.1399383544921875, 3.1222686767578125, 3.1110687255859375, 3.1080322265625, 3.1125030517578125, 3.1126861572265625, 3.11041259765625, 3.1157989501953125, 3.1262054443359375, 3.1443328857421875, 3.139190673828125, 3.1425628662109375, 3.2813873291015625, 3.280303955078125, 3.1569061279296875, 3.157440185546875, 3.1661529541015625, 3.172454833984375, 3.1747894287109375, 3.172637939453125, 3.168853759765625, 3.1710357666015625, 3.1985931396484375, 3.19683837890625, 3.209442138671875, 3.2111053466796875, 3.21392822265625, 3.2177734375]","[2.7929229736328125, 2.812957763671875, 2.8043975830078125, 2.7812957763671875, 2.7845001220703125, 2.792266845703125, 2.7987518310546875, 2.7849273681640625, 2.778656005859375, 2.8064422607421875, 2.8045196533203125, 2.805572509765625, 2.9746246337890625, 2.95025634765625, 2.7971343994140625, 2.796142578125, 2.8146209716796875, 2.805145263671875, 2.799407958984375, 2.813323974609375, 2.820770263671875, 2.8288116455078125, 2.8446807861328125, 2.83953857421875, 2.8482208251953125, 2.86212158203125, 2.868804931640625, 2.85919189453125, 2.8640289306640625, 2.8801727294921875]","[1, 1, 1, 1, 1, 1, 1, 1, 1, 1, 1, 1, 1, 1, 1, 1, 1, 1, 1, 1, 1, 1, 1, 1, 1, 1, 1, 1, 1, 1]","[1, 1, 1, 1, 1, 1, 1, 1, 1, 1, 1, 1, 1, 1, 1, 1, 1, 1, 1, 1, 1, 1, 1, 1, 1, 1, 1, 1, 1, 1]",3.1636835734049478,2.827140299479167,1.0,1.0,44.8100005,None,None,44.8100005,None,,,,,,,,,,,,,,,,,,,,,,Letters,001,2022_Jun_16_1127,ErrorStudy_v1,2021.2.3,60.00373223214496,
Letters_1st_Run.xlsx,1,1,0,Eye-tracking is a sensor technolo*zy that can detec*k a person’s presen*ve and follow what they are lookin*b at in real-ti*ne.,0,0,0,0,,,,,,,,,0,0,0,0,29,0,29,0,,,,,,,,,,,,,-985.0,Eye-tracking is a sensor techn,n,,sentence_trial,"[3.2293853759765625, 3.2466278076171875, 3.25958251953125, 3.266082763671875, 3.2691802978515625, 3.2625274658203125, 3.2779083251953125, 3.2899017333984375, 3.2923431396484375, 3.298583984375, 3.3132476806640625, 3.30194091796875, 3.3089447021484375, 3.31591796875, 3.3240966796875, 3.3491973876953125, 3.3571014404296875, 3.354217529296875, 3.3685760498046875, 3.365631103515625, 3.365692138671875, 3.3874969482421875, 3.38995361328125, 3.3784027099609375, 3.376007080078125, 3.35540771484375, 3.3536834716796875, 3.35540771484375, 3.3453369140625, 3.3498992919921875]","[2.8890228271484375, 2.89788818359375, 2.8981170654296875, 2.8798675537109375, 2.8861846923828125, 2.88800048828125, 2.900665283203125, 2.920379638671875, 2.922210693359375, 2.9210968017578125, 2.92083740234375, 2.9141387939453125, 2.9279632568359375, 2.9307403564453125, 2.948272705078125, 2.94580078125, 2.9402313232421875, 2.96270751953125, 2.972076416015625, 2.9615020751953125, 2.9562835693359375, 2.94989013671875, 2.9605865478515625, 2.9650115966796875, 2.951904296875, 2.9554595947265625, 2.9551239013671875, 2.964080810546875, 2.957550048828125, 2.953765869140625]","[1, 1, 1, 1, 1, 1, 1, 1, 1, 1, 1, 1, 1, 1, 1, 1, 1, 1, 1, 1, 1, 1, 1, 1, 1, 1, 1, 1, 1, 1]","[1, 1, 1, 1, 1, 1, 1, 1, 1, 1, 1, 1, 1, 1, 1, 1, 1, 1, 1, 1, 1, 1, 1, 1, 1, 1, 1, 1, 1, 1]",3.3236094156901044,2.9332453409830728,1.0,1.0,45.309078699999986,None,None,45.309078699999986,None,,,,,,,,,,,,,,,,,,,,,,Letters,001,2022_Jun_16_1127,ErrorStudy_v1,2021.2.3,60.00373223214496,
Letters_1st_Run.xlsx,1,1,0,Eye-tracking is a sensor technolo*zy that can detec*k a person’s presen*ve and follow what they are lookin*b at in real-ti*ne.,0,0,0,0,,,,,,,,,0,0,0,0,30,0,30,0,,,,,,,,,,,,,-984.5,Eye-tracking is a sensor techno,o,,sentence_trial,"[3.3519439697265625, 3.34771728515625, 3.331756591796875, 3.3363189697265625, 3.3389129638671875, 3.335723876953125, 3.3368377685546875, 3.3480072021484375, 3.3559722900390625, 3.34417724609375, 3.3386993408203125, 3.3310089111328125, 3.3409881591796875, 3.353912353515625, 3.355010986328125, 3.34722900390625, 3.34674072265625, 3.3513946533203125, 3.360565185546875, 3.36065673828125, 3.3488311767578125, 3.3441162109375, 3.3460693359375, 3.3461151123046875, 3.3311767578125, 3.3201904296875, 3.317291259765625, 3.31475830078125, 3.3106231689453125, 3.3106689453125]","[2.9629058837890625, 2.9546661376953125, 2.94732666015625, 2.9451904296875, 2.9552764892578125, 2.932159423828125, 2.9180145263671875, 2.929229736328125, 2.93695068359375, 2.94293212890625, 2.946197509765625, 2.9537353515625, 2.9384613037109375, 2.9426116943359375, 2.9537506103515625, 2.9475555419921875, 2.942291259765625, 2.9344024658203125, 2.9314727783203125, 2.9389801025390625, 2.95904541015625, 2.953826904296875, 2.934906005859375, 2.9358367919921875, 2.9322052001953125, 2.9251556396484375, 2.92364501953125, 2.920806884765625, 2.9195404052734375, 2.9140167236328125]","[1, 1, 1, 1, 1, 1, 1, 1, 1, 1, 1, 1, 1, 1, 1, 1, 1, 1, 1, 1, 1, 1, 1, 1, 1, 1, 1, 1, 1, 1]","[1, 1, 1, 1, 1, 1, 1, 1, 1, 1, 1, 1, 1, 1, 1, 1, 1, 1, 1, 1, 1, 1, 1, 1, 1, 1, 1, 1, 1, 1]",3.3401138305664064,2.939103190104167,1.0,1.0,45.80875889999993,None,None,45.80875889999993,None,,,,,,,,,,,,,,,,,,,,,,Letters,001,2022_Jun_16_1127,ErrorStudy_v1,2021.2.3,60.00373223214496,
Letters_1st_Run.xlsx,1,1,0,Eye-tracking is a sensor technolo*zy that can detec*k a person’s presen*ve and follow what they are lookin*b at in real-ti*ne.,0,0,0,0,,,,,,,,,0,0,0,0,31,0,31,0,,,,,,,,,,,,,-984.0,Eye-tracking is a sensor technol,l,,sentence_trial,"[3.3104095458984375, 3.3240509033203125, 3.3253326416015625, 3.3277130126953125, 3.324981689453125, 3.3117523193359375, 3.3118896484375, 3.324951171875, 3.31854248046875, 3.3093414306640625, 3.318267822265625, 3.31268310546875, 3.3054351806640625, 3.3134002685546875, 3.315460205078125, 3.3188629150390625, 3.3305511474609375, 3.326934814453125, 3.3202362060546875, 3.33953857421875, 3.3436126708984375, 3.3216400146484375, 3.3359832763671875, 3.3526153564453125, 3.3651123046875, 3.3634185791015625, 3.3621368408203125, 3.372406005859375, 3.380462646484375, 3.370513916015625]","[2.9090728759765625, 2.91827392578125, 2.920867919921875, 2.935577392578125, 2.9532318115234375, 2.9356231689453125, 2.9248199462890625, 2.923431396484375, 2.927093505859375, 2.941864013671875, 2.9403076171875, 2.937530517578125, 2.9500732421875, 2.949188232421875, 2.9615478515625, 2.9722900390625, 2.9647369384765625, 2.9587860107421875, 2.9703826904296875, 2.960693359375, 2.968292236328125, 2.9804840087890625, 2.977996826171875, 2.978790283203125, 2.9913482666015625, 2.99578857421875, 2.9997711181640625, 3.0189208984375, 3.0179595947265625, 3.0046234130859375]","[1, 1, 1, 1, 1, 1, 1, 1, 1, 1, 1, 1, 1, 1, 1, 1, 1, 1, 1, 1, 1, 1, 1, 1, 1, 1, 1, 1, 1, 1]","[1, 1, 1, 1, 1, 1, 1, 1, 1, 1, 1, 1, 1, 1, 1, 1, 1, 1, 1, 1, 1, 1, 1, 1, 1, 1, 1, 1, 1, 1]",3.3319412231445313,2.9596455891927085,1.0,1.0,46.308203100000014,None,None,46.308203100000014,None,,,,,,,,,,,,,,,,,,,,,,Letters,001,2022_Jun_16_1127,ErrorStudy_v1,2021.2.3,60.00373223214496,
Letters_1st_Run.xlsx,1,1,0,Eye-tracking is a sensor technolo*zy that can detec*k a person’s presen*ve and follow what they are lookin*b at in real-ti*ne.,0,0,0,0,,,,,,,,,0,0,0,0,32,0,32,0,,,,,,,,,,,,,-983.5,Eye-tracking is a sensor technolo,o,,sentence_trial,"[3.3758697509765625, 3.3839874267578125, 3.3554229736328125, 3.3455352783203125, 3.338836669921875, 3.3460845947265625, 3.3751373291015625, 3.3671722412109375, 3.362579345703125, 3.3714447021484375, 3.3733978271484375, 3.3668365478515625, 3.364959716796875, 3.3669281005859375, 3.358642578125, 3.3430023193359375, 3.345672607421875, 3.359588623046875, 3.3560638427734375, 3.3518524169921875, 3.3571929931640625, 3.3634185791015625, 3.375030517578125, 3.3792877197265625, 3.3777313232421875, 3.3769378662109375, 3.3855438232421875, 3.394500732421875, 3.407562255859375, 3.4147186279296875]","[3.007537841796875, 3.0137786865234375, 3.027313232421875, 3.035125732421875, 3.0231781005859375, 2.9940185546875, 2.998809814453125, 3.02056884765625, 3.0029144287109375, 2.9992218017578125, 3.008697509765625, 3.0164642333984375, 3.019775390625, 3.0012969970703125, 2.99298095703125, 3.0117950439453125, 3.01318359375, 3.001617431640625, 2.995147705078125, 2.9997406005859375, 3.00982666015625, 2.9909515380859375, 2.99267578125, 3.0107269287109375, 3.01153564453125, 3.0030517578125, 3.004791259765625, 3.0203094482421875, 3.0316925048828125, 3.0324249267578125]","[1, 1, 1, 1, 1, 1, 1, 1, 1, 1, 1, 1, 1, 1, 1, 1, 1, 1, 1, 1, 1, 1, 1, 1, 1, 1, 1, 1, 1, 1]","[1, 1, 1, 1, 1, 1, 1, 1, 1, 1, 1, 1, 1, 1, 1, 1, 1, 1, 1, 1, 1, 1, 1, 1, 1, 1, 1, 1, 1, 1]",3.368031311035156,3.009705098470052,1.0,1.0,46.807702800000015,None,None,46.807702800000015,None,,,,,,,,,,,,,,,,,,,,,,Letters,001,2022_Jun_16_1127,ErrorStudy_v1,2021.2.3,60.00373223214496,
Letters_1st_Run.xlsx,1,1,0,Eye-tracking is a sensor technolo*zy that can detec*k a person’s presen*ve and follow what they are lookin*b at in real-ti*ne.,0,0,0,0,,,,,,,,,0,0,0,0,33,0,33,0,,,,,,,,,,,,,0,Eye-tracking is a sensor technoloz,z,error,sentence_trial,"[3.5284271240234375, 3.453369140625, 3.471282958984375, 3.4824371337890625, 3.476898193359375, 3.4954376220703125, 3.5030364990234375, 3.509185791015625, 3.51470947265625, 3.6295166015625, 3.6845855712890625, 3.5724639892578125, 3.5567626953125, 3.6375732421875, 3.716949462890625, 3.716949462890625, nan, 3.5566864013671875, 3.5953216552734375, 3.68109130859375, 3.72674560546875, 3.623291015625, 3.62567138671875, 3.6276397705078125, 3.6196746826171875, 3.717315673828125, 3.7776641845703125, 3.645416259765625, 3.62005615234375]","[3.150787353515625, 3.130096435546875, nan, 3.0355224609375, 3.0945892333984375, 3.103179931640625, 3.0817108154296875, 3.092559814453125, 3.1207122802734375, 3.1323699951171875, 3.1326751708984375, 3.1406097412109375, 3.138885498046875, 3.148681640625, 3.1571502685546875, 3.1644287109375, 3.1690673828125, 3.158477783203125, 3.1541595458984375, 3.1692352294921875, 3.1750335693359375, 3.18621826171875, 3.193115234375, 3.1935577392578125, 3.202117919921875, 3.20452880859375, 3.1937255859375, 3.1876373291015625, 3.18145751953125]","[1, 1, 1, 1, 1, 1, 1, 1, 1, 1, 1, 1, 1, 1, 1, 1, 0, 1, 1, 1, 1, 1, 1, 1, 1, 1, 1, 1, 1]","[1, 1, 0, 1, 1, 1, 1, 1, 1, 1, 1, 1, 1, 1, 1, 1, 1, 1, 1, 1, 1, 1, 1, 1, 1, 1, 1, 1, 1]",nan,nan,0.9655172413793104,0.9655172413793104,47.32330200000001,None,None,47.32330200000001,None,,,,,,,,,,,,,,,,,,,,,,Letters,001,2022_Jun_16_1127,ErrorStudy_v1,2021.2.3,60.00373223214496,
Letters_1st_Run.xlsx,1,1,0,Eye-tracking is a sensor technolo*zy that can detec*k a person’s presen*ve and follow what they are lookin*b at in real-ti*ne.,0,0,0,0,,,,,,,,,0,0,0,0,34,0,34,0,,,,,,,,,,,,,0.5,Eye-tracking is a sensor technolozy,y,,sentence_trial,"[3.6928863525390625, 3.7452392578125, 3.7452392578125, nan, 3.584991455078125, 3.6359710693359375, 3.745941162109375, 3.7625885009765625, 3.641693115234375, 3.639190673828125, 3.7601165771484375, 3.7046356201171875, 3.7046356201171875, nan, 3.61907958984375, 3.655059814453125, 3.6654052734375, 3.67230224609375, 3.6707000732421875, 3.6800689697265625, 3.7037506103515625, 3.7044525146484375, 3.7221221923828125, 3.6920013427734375, 3.7003631591796875, 3.73944091796875, 3.7404022216796875, 3.741607666015625, 3.830047607421875, 3.8504486083984375]","[3.282684326171875, 3.262420654296875, 3.1661224365234375, 3.176300048828125, 3.2943572998046875, 3.25164794921875, 3.25164794921875, nan, 3.10595703125, 3.1711273193359375, 3.3065643310546875, 3.2794952392578125, 3.2794952392578125, nan, 3.1463165283203125, 3.1937713623046875, 3.20166015625, 3.2093505859375, 3.2227630615234375, 3.22735595703125, 3.3377532958984375, 3.3565216064453125, 3.248992919921875, 3.259857177734375, 3.2822418212890625, 3.27203369140625, 3.35675048828125, 3.3766326904296875, 3.2831573486328125, 3.2840728759765625]","[1, 1, 1, 0, 1, 1, 1, 1, 1, 1, 1, 1, 1, 0, 1, 1, 1, 1, 1, 1, 1, 1, 1, 1, 1, 1, 1, 1, 1, 1]","[1, 1, 1, 1, 1, 1, 1, 0, 1, 1, 1, 1, 1, 0, 1, 1, 1, 1, 1, 1, 1, 1, 1, 1, 1, 1, 1, 1, 1, 1]",nan,nan,0.9333333333333333,0.9333333333333333,47.80705809999995,None,None,47.80705809999995,None,,,,,,,,,,,,,,,,,,,,,,Letters,001,2022_Jun_16_1127,ErrorStudy_v1,2021.2.3,60.00373223214496,
Letters_1st_Run.xlsx,1,1,0,Eye-tracking is a sensor technolo*zy that can detec*k a person’s presen*ve and follow what they are lookin*b at in real-ti*ne.,0,0,0,0,,,,,,,,,0,0,0,0,35,0,35,0,,,,,,,,,,,,,1.0,Eye-tracking is a sensor technolozy , ,,sentence_trial,"[3.8504486083984375, nan, nan, nan, nan, nan, 3.7051544189453125, 3.7414398193359375, 3.7420196533203125, 3.7583770751953125, 3.7614898681640625, 3.7467803955078125, 3.7542724609375, 3.75299072265625, 3.7367095947265625, 3.74786376953125, 3.7640838623046875, 3.75823974609375, 3.76434326171875, 3.7776641845703125, 3.7725677490234375, 3.75775146484375, 3.7449493408203125, 3.7493743896484375, 3.7716522216796875, 3.79156494140625, 3.78656005859375, 3.8356475830078125, 4.0545196533203125, 3.8892669677734375]","[3.272216796875, 3.266357421875, 3.358062744140625, 3.3332366943359375, 3.2553253173828125, 3.2607574462890625, 3.2504425048828125, 3.2513885498046875, 3.2436981201171875, 3.2467498779296875, 3.3639678955078125, 3.356781005859375, 3.2475433349609375, 3.2592620849609375, 3.2642974853515625, 3.2602386474609375, 3.247100830078125, 3.2366180419921875, 3.251739501953125, 3.265472412109375, 3.27899169921875, 3.2844085693359375, 3.2875518798828125, 3.28485107421875, 3.3038330078125, 3.3041534423828125, 3.2923126220703125, 3.2912750244140625, 3.28265380859375, 3.3118438720703125]","[1, 0, 0, 0, 0, 0, 1, 1, 1, 1, 1, 1, 1, 1, 1, 1, 1, 1, 1, 1, 1, 1, 1, 1, 1, 1, 1, 1, 1, 1]","[1, 1, 1, 1, 1, 1, 1, 1, 1, 1, 1, 1, 1, 1, 1, 1, 1, 1, 1, 1, 1, 1, 1, 1, 1, 1, 1, 1, 1, 1]",nan,3.280437723795573,0.8333333333333334,1.0,48.30570769999997,None,None,48.30570769999997,None,,,,,,,,,,,,,,,,,,,,,,Letters,001,2022_Jun_16_1127,ErrorStudy_v1,2021.2.3,60.00373223214496,
Letters_1st_Run.xlsx,1,1,0,Eye-tracking is a sensor technolo*zy that can detec*k a person’s presen*ve and follow what they are lookin*b at in real-ti*ne.,0,0,0,0,,,,,,,,,0,0,0,0,36,0,36,0,,,,,,,,,,,,,1.5,Eye-tracking is a sensor technolozy t,t,,sentence_trial,"[3.781890869140625, 3.804290771484375, 3.8060455322265625, 3.7803192138671875, 3.7607421875, 3.7621612548828125, 3.7480316162109375, 3.7371826171875, 3.76812744140625, 3.7696380615234375, 3.74957275390625, 3.7452850341796875, 3.7630157470703125, 3.766876220703125, 3.76513671875, 3.763885498046875, 3.7619171142578125, 3.7732391357421875, 3.7528533935546875, 3.7410125732421875, 3.7581024169921875, 3.7580718994140625, 3.7591705322265625, 3.748443603515625, 3.823211669921875, 3.8736724853515625, 3.745361328125, 3.7283172607421875, 3.7057952880859375, 3.7037506103515625]","[3.32135009765625, 3.29876708984375, 3.29736328125, 3.296173095703125, 3.3098297119140625, 3.318572998046875, 3.2971954345703125, 3.29132080078125, 3.31695556640625, 3.3144378662109375, 3.3165130615234375, 3.3289947509765625, 3.323822021484375, 3.313232421875, 3.30517578125, 3.3074798583984375, 3.31707763671875, 3.3136749267578125, 3.3099212646484375, 3.3054656982421875, 3.32037353515625, 3.3214263916015625, 3.31268310546875, 3.32525634765625, 3.441131591796875, 3.413330078125, 3.3223724365234375, 3.32098388671875, 3.3072357177734375, 3.30987548828125]","[1, 1, 1, 1, 1, 1, 1, 1, 1, 1, 1, 1, 1, 1, 1, 1, 1, 1, 1, 1, 1, 1, 1, 1, 1, 1, 1, 1, 1, 1]","[1, 1, 1, 1, 1, 1, 1, 1, 1, 1, 1, 1, 1, 1, 1, 1, 1, 1, 1, 1, 1, 1, 1, 1, 1, 1, 1, 1, 1, 1]",3.7635040283203125,3.319933064778646,1.0,1.0,48.8054631,None,None,48.8054631,None,,,,,,,,,,,,,,,,,,,,,,Letters,001,2022_Jun_16_1127,ErrorStudy_v1,2021.2.3,60.00373223214496,
Letters_1st_Run.xlsx,1,1,0,Eye-tracking is a sensor technolo*zy that can detec*k a person’s presen*ve and follow what they are lookin*b at in real-ti*ne.,0,0,0,0,,,,,,,,,0,0,0,0,37,0,37,0,,,,,,,,,,,,,2.0,Eye-tracking is a sensor technolozy th,h,,sentence_trial,"[3.7316741943359375, 3.7347869873046875, 3.732208251953125, 3.752716064453125, 3.7502899169921875, 3.7502593994140625, 3.7534027099609375, 3.7334747314453125, 3.7245025634765625, 3.7263641357421875, 3.746185302734375, 3.7538909912109375, 3.74212646484375, 3.746490478515625, 3.766387939453125, 3.772308349609375, 3.760040283203125, 3.759185791015625, 3.768798828125, 3.782562255859375, 3.7830810546875, 3.767425537109375, 3.88018798828125, 3.9425048828125, 3.9425048828125, nan, nan, nan, nan, nan]","[3.2955322265625, 3.293548583984375, 3.2962799072265625, 3.295867919921875, 3.3226470947265625, 3.32562255859375, 3.328857421875, 3.335662841796875, 3.3255462646484375, 3.326568603515625, 3.3330535888671875, 3.335296630859375, 3.3347625732421875, 3.33795166015625, 3.3495025634765625, 3.335205078125, 3.3372802734375, 3.3349151611328125, 3.342193603515625, 3.338226318359375, 3.3426055908203125, 3.359832763671875, 3.45684814453125, nan, nan, nan, nan, nan, nan, nan]","[1, 1, 1, 1, 1, 1, 1, 1, 1, 1, 1, 1, 1, 1, 1, 1, 1, 1, 1, 1, 1, 1, 1, 1, 1, 0, 0, 0, 0, 0]","[1, 1, 1, 1, 1, 1, 1, 1, 1, 1, 1, 1, 1, 1, 1, 1, 1, 1, 1, 1, 1, 1, 1, 0, 0, 0, 0, 0, 0, 0]",nan,nan,0.8333333333333334,0.7666666666666667,49.30509810000001,None,None,49.30509810000001,None,,,,,,,,,,,,,,,,,,,,,,Letters,001,2022_Jun_16_1127,ErrorStudy_v1,2021.2.3,60.00373223214496,
Letters_1st_Run.xlsx,1,1,0,Eye-tracking is a sensor technolo*zy that can detec*k a person’s presen*ve and follow what they are lookin*b at in real-ti*ne.,0,0,0,0,,,,,,,,,0,0,0,0,38,0,38,0,,,,,,,,,,,,,2.5,Eye-tracking is a sensor technolozy tha,a,,sentence_trial,"[nan, nan, nan, nan, 3.3413543701171875, 3.3413543701171875, 3.593414306640625, 3.6780548095703125, 3.713531494140625, 3.6804046630859375, 3.7030792236328125, 3.704376220703125, 3.694305419921875, 3.68646240234375, 3.68511962890625, 3.685699462890625, 3.6707611083984375, 3.681671142578125, 3.7123260498046875, 3.714385986328125, 3.707061767578125, 3.69696044921875, 3.714202880859375, 3.7264862060546875, 3.704010009765625, 3.6636199951171875, nan, nan, nan, nan]","[nan, nan, nan, nan, nan, nan, 3.17388916015625, 3.224945068359375, 3.29705810546875, 3.306793212890625, 3.2964324951171875, 3.290802001953125, 3.2953643798828125, 3.2854766845703125, 3.2924346923828125, 3.306793212890625, 3.4011993408203125, 3.40673828125, 3.3066558837890625, 3.3015594482421875, 3.3108062744140625, 3.3172149658203125, 3.3230133056640625, 3.336395263671875, 3.3206024169921875, 3.263885498046875, nan, nan, nan, nan]","[0, 0, 0, 0, 1, 1, 1, 1, 1, 1, 1, 1, 1, 1, 1, 1, 1, 1, 1, 1, 1, 1, 1, 1, 1, 1, 0, 0, 0, 0]","[0, 0, 0, 0, 0, 0, 1, 1, 1, 1, 1, 1, 1, 1, 1, 1, 1, 1, 1, 1, 1, 1, 1, 1, 1, 1, 0, 0, 0, 0]",nan,nan,0.7333333333333333,0.6666666666666666,49.80514519999997,None,None,49.80514519999997,None,,,,,,,,,,,,,,,,,,,,,,Letters,001,2022_Jun_16_1127,ErrorStudy_v1,2021.2.3,60.00373223214496,
Letters_1st_Run.xlsx,1,1,0,Eye-tracking is a sensor technolo*zy that can detec*k a person’s presen*ve and follow what they are lookin*b at in real-ti*ne.,0,0,0,0,,,,,,,,,0,0,0,0,39,0,39,0,,,,,,,,,,,,,3.0,Eye-tracking is a sensor technolozy that,t,,sentence_trial,"[nan, nan, nan, nan, 3.4667816162109375, 3.55126953125, 3.635528564453125, 3.620147705078125, 3.6031494140625, 3.602569580078125, 3.59869384765625, 3.6257171630859375, 3.6287841796875, 3.6273651123046875, 3.620819091796875, 3.5924072265625, 3.586273193359375, 3.5966033935546875, 3.6063079833984375, 3.617706298828125, 3.630126953125, 3.621368408203125, 3.7245025634765625, 3.7130279541015625, 3.6100921630859375, 3.60369873046875, 3.57098388671875, 3.5776214599609375, 3.5515594482421875, 3.5223541259765625]","[nan, nan, nan, nan, 2.3127288818359375, 2.3127288818359375, 3.18115234375, 3.217254638671875, 3.2222442626953125, 3.2287445068359375, 3.225341796875, 3.23944091796875, 3.22674560546875, 3.2193603515625, 3.2288818359375, 3.232940673828125, 3.2100372314453125, 3.207000732421875, 3.2267608642578125, 3.2244110107421875, 3.2353057861328125, 3.251617431640625, 3.2405548095703125, 3.223052978515625, 3.2247772216796875, 3.227325439453125, 3.2271575927734375, 3.220977783203125, 3.19244384765625, 3.1996612548828125]","[0, 0, 0, 0, 1, 1, 1, 1, 1, 1, 1, 1, 1, 1, 1, 1, 1, 1, 1, 1, 1, 1, 1, 1, 1, 1, 1, 1, 1, 1]","[0, 0, 0, 0, 1, 1, 1, 1, 1, 1, 1, 1, 1, 1, 1, 1, 1, 1, 1, 1, 1, 1, 1, 1, 1, 1, 1, 1, 1, 1]",nan,nan,0.8666666666666667,0.8666666666666667,50.304200899999955,None,None,50.304200899999955,None,,,,,,,,,,,,,,,,,,,,,,Letters,001,2022_Jun_16_1127,ErrorStudy_v1,2021.2.3,60.00373223214496,
Letters_1st_Run.xlsx,1,1,0,Eye-tracking is a sensor technolo*zy that can detec*k a person’s presen*ve and follow what they are lookin*b at in real-ti*ne.,0,0,0,0,,,,,,,,,0,0,0,0,40,0,40,0,,,,,,,,,,,,,3.5,Eye-tracking is a sensor technolozy that , ,,sentence_trial,"[3.5237579345703125, 3.539947509765625, 3.520355224609375, 3.5179290771484375, 3.6622772216796875, 3.624664306640625, 3.624664306640625, nan, nan, nan, 3.387115478515625, 3.460418701171875, 3.4512786865234375, 3.425567626953125, 3.404022216796875, 3.38671875, 3.3885498046875, 3.4301605224609375, 3.43536376953125, 3.4124908447265625, 3.4084320068359375, 3.38604736328125, 3.392547607421875, 3.4042816162109375, 3.3983306884765625, 3.3879852294921875, 3.3943328857421875, 3.392608642578125, 3.48309326171875, 3.309478759765625]","[3.1890716552734375, 3.1696014404296875, 3.159332275390625, 3.1491546630859375, 3.25006103515625, 3.2699432373046875, 3.1356048583984375, 3.107696533203125, 3.0921630859375, 3.086700439453125, 3.07427978515625, 3.09283447265625, 3.0842742919921875, 3.0653533935546875, 3.0658111572265625, 3.07147216796875, 3.0590362548828125, 3.0508880615234375, 3.0564727783203125, 3.0420379638671875, 3.115264892578125, 3.1527862548828125, 3.044677734375, 3.0445404052734375, 3.046356201171875, 3.0526275634765625, 3.05023193359375, 3.0502166748046875, 3.1744842529296875, 2.3835906982421875]","[1, 1, 1, 1, 1, 1, 1, 0, 0, 0, 1, 1, 1, 1, 1, 1, 1, 1, 1, 1, 1, 1, 1, 1, 1, 1, 1, 1, 1, 1]","[1, 1, 1, 1, 1, 1, 1, 1, 1, 1, 1, 1, 1, 1, 1, 1, 1, 1, 1, 1, 1, 1, 1, 1, 1, 1, 1, 1, 1, 1]",nan,3.0795522054036457,0.9,1.0,50.803554499999905,None,None,50.803554499999905,None,,,,,,,,,,,,,,,,,,,,,,Letters,001,2022_Jun_16_1127,ErrorStudy_v1,2021.2.3,60.00373223214496,
Letters_1st_Run.xlsx,1,1,0,Eye-tracking is a sensor technolo*zy that can detec*k a person’s presen*ve and follow what they are lookin*b at in real-ti*ne.,0,0,0,0,,,,,,,,,0,0,0,0,41,0,41,0,,,,,,,,,,,,,4.0,Eye-tracking is a sensor technolozy that c,c,,sentence_trial,"[3.309478759765625, nan, nan, nan, nan, nan, 3.1374664306640625, 3.1374664306640625, 3.3361968994140625, 3.3972320556640625, 3.4539337158203125, 3.4641265869140625, 3.4633636474609375, 3.4546966552734375, 3.4675140380859375, 3.454193115234375, 3.4607696533203125, 3.47308349609375, 3.4767303466796875, 3.498046875, 3.5067596435546875, 3.50653076171875, 3.511322021484375, 3.5166473388671875, 3.5237274169921875, 3.5308837890625, 3.5120697021484375, 3.5213165283203125, 3.5176849365234375, 3.4810791015625]","[2.3835906982421875, nan, nan, nan, nan, nan, nan, nan, 2.9725341796875, 3.025909423828125, 3.068756103515625, 3.0753631591796875, 3.074859619140625, 3.081878662109375, 3.09320068359375, 3.0914459228515625, 3.090545654296875, 3.0890350341796875, 3.0994720458984375, 3.108551025390625, 3.1139373779296875, 3.126861572265625, 3.1401824951171875, 3.1322784423828125, 3.1236724853515625, 3.1281280517578125, 3.1300048828125, 3.118988037109375, 3.109039306640625, 3.1104583740234375]","[1, 0, 0, 0, 0, 0, 1, 1, 1, 1, 1, 1, 1, 1, 1, 1, 1, 1, 1, 1, 1, 1, 1, 1, 1, 1, 1, 1, 1, 1]","[1, 0, 0, 0, 0, 0, 0, 0, 1, 1, 1, 1, 1, 1, 1, 1, 1, 1, 1, 1, 1, 1, 1, 1, 1, 1, 1, 1, 1, 1]",nan,nan,0.8333333333333334,0.7666666666666667,51.303190499999914,None,None,51.303190499999914,None,,,,,,,,,,,,,,,,,,,,,,Letters,001,2022_Jun_16_1127,ErrorStudy_v1,2021.2.3,60.00373223214496,
Letters_1st_Run.xlsx,1,1,0,Eye-tracking is a sensor technolo*zy that can detec*k a person’s presen*ve and follow what they are lookin*b at in real-ti*ne.,0,0,0,0,,,,,,,,,0,0,0,0,42,0,42,0,,,,,,,,,,,,,4.5,Eye-tracking is a sensor technolozy that ca,a,,sentence_trial,"[3.564971923828125, 3.5958709716796875, 3.5958709716796875, nan, 3.41552734375, 3.4520416259765625, 3.452667236328125, 3.41644287109375, nan, nan, nan, nan, nan, nan, nan, nan, 3.245635986328125, 3.36822509765625, 3.471038818359375, 3.4319000244140625, 3.4400634765625, 3.4262542724609375, 3.4213409423828125, 3.4460906982421875, 3.447113037109375, 3.4622955322265625, 3.4771728515625, 3.41925048828125, nan, nan]","[3.101043701171875, 3.0907745361328125, 3.0792999267578125, 3.0791168212890625, 3.077911376953125, 3.0784759521484375, 3.0726165771484375, 3.0214385986328125, nan, nan, nan, nan, nan, nan, nan, nan, 2.69921875, 2.69921875, 3.0023651123046875, 3.045928955078125, 3.052642822265625, 3.059844970703125, 3.055633544921875, 3.0638580322265625, 3.0662384033203125, 3.078948974609375, 3.083526611328125, 3.0630035400390625, 3.060546875, 3.068695068359375]","[1, 1, 1, 0, 1, 1, 1, 1, 0, 0, 0, 0, 0, 0, 0, 0, 1, 1, 1, 1, 1, 1, 1, 1, 1, 1, 1, 1, 0, 0]","[1, 1, 1, 1, 1, 1, 1, 1, 0, 0, 0, 0, 0, 0, 0, 0, 1, 1, 1, 1, 1, 1, 1, 1, 1, 1, 1, 1, 1, 1]",nan,nan,0.6333333333333333,0.7333333333333333,51.80289899999991,None,None,51.80289899999991,None,,,,,,,,,,,,,,,,,,,,,,Letters,001,2022_Jun_16_1127,ErrorStudy_v1,2021.2.3,60.00373223214496,
Letters_1st_Run.xlsx,1,1,0,Eye-tracking is a sensor technolo*zy that can detec*k a person’s presen*ve and follow what they are lookin*b at in real-ti*ne.,0,0,0,0,,,,,,,,,0,0,0,0,43,0,43,0,,,,,,,,,,,,,5.0,Eye-tracking is a sensor technolozy that can,n,,sentence_trial,"[3.44854736328125, 3.5018768310546875, 3.502044677734375, 3.5029144287109375, 3.50341796875, 3.5158233642578125, 3.65484619140625, 3.5929107666015625, 3.492706298828125, 3.4857177734375, 3.468353271484375, 3.467681884765625, 3.4684600830078125, 3.467132568359375, 3.4545745849609375, 3.45477294921875, 3.4404144287109375, 3.431976318359375, 3.4242401123046875, 3.4091033935546875, 3.40032958984375, 3.4034576416015625, 3.411163330078125, 3.3679656982421875, nan, nan, nan, nan, nan, nan]","[3.084320068359375, 3.0801239013671875, 3.0855255126953125, 3.0966644287109375, 3.0974578857421875, 3.099273681640625, 3.2150726318359375, 3.2589874267578125, 3.102630615234375, 3.0891265869140625, 3.0931549072265625, 3.096435546875, 3.0879974365234375, 3.080841064453125, 3.063323974609375, 3.070281982421875, 3.067138671875, 3.04736328125, 3.037139892578125, 3.0174713134765625, 3.0224456787109375, 3.032745361328125, 3.007354736328125, 2.9473876953125, nan, nan, nan, nan, nan, nan]","[1, 1, 1, 1, 1, 1, 1, 1, 1, 1, 1, 1, 1, 1, 1, 1, 1, 1, 1, 1, 1, 1, 1, 1, 0, 0, 0, 0, 0, 0]","[1, 1, 1, 1, 1, 1, 1, 1, 1, 1, 1, 1, 1, 1, 1, 1, 1, 1, 1, 1, 1, 1, 1, 1, 0, 0, 0, 0, 0, 0]",nan,nan,0.8,0.8,52.30254819999993,None,None,52.30254819999993,None,,,,,,,,,,,,,,,,,,,,,,Letters,001,2022_Jun_16_1127,ErrorStudy_v1,2021.2.3,60.00373223214496,
Letters_1st_Run.xlsx,1,1,0,Eye-tracking is a sensor technolo*zy that can detec*k a person’s presen*ve and follow what they are lookin*b at in real-ti*ne.,0,0,0,0,,,,,,,,,0,0,0,0,44,0,44,0,,,,,,,,,,,,,5.5,Eye-tracking is a sensor technolozy that can , ,,sentence_trial,"[nan, nan, 3.12298583984375, 3.12298583984375, 3.3204345703125, 3.3626251220703125, 3.3924560546875, 3.4201202392578125, 3.42108154296875, 3.4028472900390625, 3.407958984375, 3.4068603515625, 3.4146575927734375, 3.4251556396484375, 3.4354095458984375, 3.44366455078125, 3.4597015380859375, 3.459625244140625, 3.462493896484375, 3.45281982421875, 3.455078125, 3.4669036865234375, 3.466339111328125, 3.46405029296875, 3.4525604248046875, 3.4631805419921875, 3.4473876953125, 3.4284820556640625, 3.5199737548828125, 3.5187225341796875]","[nan, nan, 2.6402130126953125, 2.6402130126953125, 2.926513671875, 2.9792938232421875, 2.9873046875, 2.98345947265625, 2.97625732421875, 2.9926605224609375, 2.9832611083984375, 2.9726715087890625, 2.998779296875, 3.0058135986328125, 3.006134033203125, 3.0184326171875, 3.0292205810546875, 3.029449462890625, 3.03399658203125, 3.0251617431640625, 3.0363006591796875, 3.045562744140625, 3.054168701171875, 3.024993896484375, 3.0074920654296875, 3.0353546142578125, 3.0260467529296875, 3.015350341796875, 3.0025787353515625, 2.9884185791015625]","[0, 0, 1, 1, 1, 1, 1, 1, 1, 1, 1, 1, 1, 1, 1, 1, 1, 1, 1, 1, 1, 1, 1, 1, 1, 1, 1, 1, 1, 1]","[0, 0, 1, 1, 1, 1, 1, 1, 1, 1, 1, 1, 1, 1, 1, 1, 1, 1, 1, 1, 1, 1, 1, 1, 1, 1, 1, 1, 1, 1]",nan,nan,0.9333333333333333,0.9333333333333333,52.80190529999993,None,None,52.80190529999993,None,,,,,,,,,,,,,,,,,,,,,,Letters,001,2022_Jun_16_1127,ErrorStudy_v1,2021.2.3,60.00373223214496,
Letters_1st_Run.xlsx,1,1,0,Eye-tracking is a sensor technolo*zy that can detec*k a person’s presen*ve and follow what they are lookin*b at in real-ti*ne.,0,0,0,0,,,,,,,,,0,0,0,0,45,0,45,0,,,,,,,,,,,,,6.0,Eye-tracking is a sensor technolozy that can d,d,,sentence_trial,"[3.3921051025390625, 3.3626251220703125, 3.34588623046875, 3.32861328125, 3.3454742431640625, 3.341705322265625, 3.3394622802734375, 3.3332977294921875, 3.32391357421875, 3.322784423828125, 3.316619873046875, 3.3101654052734375, 3.32574462890625, 3.323760986328125, 3.30523681640625, 3.3074493408203125, 3.3182220458984375, 3.302398681640625, 3.2918548583984375, 3.3107757568359375, 3.3146820068359375, 3.3038482666015625, 3.3125, 3.3169708251953125, 3.303802490234375, 3.28875732421875, 3.295806884765625, 3.3051300048828125, 3.3143768310546875]","[2.9640960693359375, 2.9665374755859375, 2.9598846435546875, 2.945068359375, 2.948150634765625, 2.9354095458984375, 2.914947509765625, 2.90521240234375, 2.8995208740234375, 2.8919219970703125, 2.9060516357421875, 2.9107208251953125, 2.9231109619140625, 2.935943603515625, 2.935638427734375, 2.92333984375, 2.9101104736328125, 2.9080810546875, 2.92401123046875, 2.9218902587890625, 2.9052276611328125, 2.90625, 2.8960418701171875, 2.903289794921875, 2.898590087890625, 2.906768798828125, 2.915771484375, 2.9211578369140625, 2.942657470703125]","[1, 1, 1, 1, 1, 1, 1, 1, 1, 1, 1, 1, 1, 1, 1, 1, 1, 1, 1, 1, 1, 1, 1, 1, 1, 1, 1, 1, 1]","[1, 1, 1, 1, 1, 1, 1, 1, 1, 1, 1, 1, 1, 1, 1, 1, 1, 1, 1, 1, 1, 1, 1, 1, 1, 1, 1, 1, 1]",3.320826563341864,2.9215656148976294,1.0,1.0,53.31686830000001,None,None,53.31686830000001,None,,,,,,,,,,,,,,,,,,,,,,Letters,001,2022_Jun_16_1127,ErrorStudy_v1,2021.2.3,60.00373223214496,
Letters_1st_Run.xlsx,1,1,0,Eye-tracking is a sensor technolo*zy that can detec*k a person’s presen*ve and follow what they are lookin*b at in real-ti*ne.,0,0,0,0,,,,,,,,,0,0,0,0,46,0,46,0,,,,,,,,,,,,,6.5,Eye-tracking is a sensor technolozy that can de,e,,sentence_trial,"[3.3133544921875, 3.3127593994140625, 3.3108367919921875, 3.293548583984375, 3.3059234619140625, 3.3000030517578125, 3.2885894775390625, 3.30560302734375, 3.308746337890625, 3.3131866455078125, 3.3170928955078125, 3.29266357421875, 3.29742431640625, 3.308990478515625, 3.31170654296875, 3.3076324462890625, 3.3116607666015625, 3.3347930908203125, 3.3383636474609375, 3.3365020751953125, 3.3425445556640625, 3.3372344970703125, 3.337646484375, 3.335693359375, 3.343719482421875, 3.3503875732421875, 3.3500823974609375, 3.332489013671875, 3.427703857421875, nan]","[2.9368133544921875, 2.92010498046875, 2.9272613525390625, 2.946807861328125, 2.9559173583984375, 2.9405975341796875, 2.9394683837890625, 2.9503326416015625, 2.9455718994140625, 2.9660491943359375, 2.9619598388671875, 2.95928955078125, 2.96258544921875, 2.9464263916015625, 2.955474853515625, 2.955230712890625, 2.95489501953125, 2.9499664306640625, 2.9460296630859375, 2.962493896484375, 2.9756622314453125, 2.9681396484375, 2.9557342529296875, 2.9494171142578125, 2.9574432373046875, 2.96978759765625, 2.9680023193359375, 2.940643310546875, 3.03863525390625, nan]","[1, 1, 1, 1, 1, 1, 1, 1, 1, 1, 1, 1, 1, 1, 1, 1, 1, 1, 1, 1, 1, 1, 1, 1, 1, 1, 1, 1, 1, 0]","[1, 1, 1, 1, 1, 1, 1, 1, 1, 1, 1, 1, 1, 1, 1, 1, 1, 1, 1, 1, 1, 1, 1, 1, 1, 1, 1, 1, 1, 0]",nan,nan,0.9666666666666667,0.9666666666666667,53.80055279999999,None,None,53.80055279999999,None,,,,,,,,,,,,,,,,,,,,,,Letters,001,2022_Jun_16_1127,ErrorStudy_v1,2021.2.3,60.00373223214496,
Letters_1st_Run.xlsx,1,1,0,Eye-tracking is a sensor technolo*zy that can detec*k a person’s presen*ve and follow what they are lookin*b at in real-ti*ne.,0,0,0,0,,,,,,,,,0,0,0,0,47,0,47,0,,,,,,,,,,,,,7.0,Eye-tracking is a sensor technolozy that can det,t,,sentence_trial,"[nan, nan, nan, nan, nan, nan, nan, nan, 3.2769927978515625, 3.3370361328125, 3.37872314453125, 3.3740692138671875, 3.38116455078125, 3.3942718505859375, 3.3992156982421875, 3.39666748046875, 3.4081268310546875, 3.421417236328125, 3.419830322265625, 3.4168701171875, 3.4273681640625, 3.438079833984375, 3.4414215087890625, 3.420654296875, 3.4218597412109375, 3.4327239990234375, 3.428375244140625, 3.4288787841796875, 3.4218597412109375, 3.41705322265625]","[nan, nan, nan, nan, nan, nan, 2.3399658203125, 2.3399658203125, 2.9074859619140625, 2.9313201904296875, 2.93914794921875, 2.974395751953125, 2.9719085693359375, 2.9710845947265625, 2.97393798828125, 2.9697113037109375, 2.9723052978515625, 2.9760589599609375, 2.9818572998046875, 2.9861602783203125, 2.9980316162109375, 2.9965362548828125, 2.986968994140625, 3.0009307861328125, 3.007049560546875, 2.9432525634765625, 2.94439697265625, 3.0027618408203125, 2.996795654296875, 2.9839630126953125]","[0, 0, 0, 0, 0, 0, 0, 0, 1, 1, 1, 1, 1, 1, 1, 1, 1, 1, 1, 1, 1, 1, 1, 1, 1, 1, 1, 1, 1, 1]","[0, 0, 0, 0, 0, 0, 1, 1, 1, 1, 1, 1, 1, 1, 1, 1, 1, 1, 1, 1, 1, 1, 1, 1, 1, 1, 1, 1, 1, 1]",nan,nan,0.7333333333333333,0.8,54.300077399999964,None,None,54.300077399999964,None,,,,,,,,,,,,,,,,,,,,,,Letters,001,2022_Jun_16_1127,ErrorStudy_v1,2021.2.3,60.00373223214496,
Letters_1st_Run.xlsx,1,1,0,Eye-tracking is a sensor technolo*zy that can detec*k a person’s presen*ve and follow what they are lookin*b at in real-ti*ne.,0,0,0,0,,,,,,,,,0,0,0,0,48,0,48,0,,,,,,,,,,,,,7.5,Eye-tracking is a sensor technolozy that can dete,e,,sentence_trial,"[3.4058990478515625, 3.4049835205078125, 3.386749267578125, 3.3810577392578125, 3.3696136474609375, 3.360137939453125, 3.338653564453125, 3.3235321044921875, 3.311004638671875, 3.31488037109375, 3.307525634765625, 3.3120269775390625, 3.3026885986328125, 3.2933349609375, 3.300018310546875, 3.3012237548828125, 3.2913970947265625, 3.2936248779296875, 3.2996673583984375, 3.295318603515625, 3.296295166015625, 3.2941131591796875, 3.2921905517578125, 3.2983856201171875, 3.303131103515625, 3.303192138671875, 3.2939605712890625, 3.2908782958984375, 3.29083251953125, 3.2994232177734375]","[2.988739013671875, 2.9915771484375, 2.9696197509765625, 2.970123291015625, 2.95782470703125, 2.9509429931640625, 2.9523468017578125, 2.9405364990234375, 2.9357147216796875, 2.9291229248046875, 2.9142913818359375, 2.9082794189453125, 2.910675048828125, 2.9141998291015625, 2.905059814453125, 2.9137725830078125, 2.9210968017578125, 2.922119140625, 2.9226226806640625, 2.91265869140625, 2.899688720703125, 2.8908843994140625, 2.908660888671875, 2.9086151123046875, 2.900909423828125, 2.92755126953125, 2.92596435546875, 2.930938720703125, 2.9341888427734375, 2.925933837890625]","[1, 1, 1, 1, 1, 1, 1, 1, 1, 1, 1, 1, 1, 1, 1, 1, 1, 1, 1, 1, 1, 1, 1, 1, 1, 1, 1, 1, 1, 1]","[1, 1, 1, 1, 1, 1, 1, 1, 1, 1, 1, 1, 1, 1, 1, 1, 1, 1, 1, 1, 1, 1, 1, 1, 1, 1, 1, 1, 1, 1]",3.3185246785481772,2.9294886271158855,1.0,1.0,54.79960439999991,None,None,54.79960439999991,None,,,,,,,,,,,,,,,,,,,,,,Letters,001,2022_Jun_16_1127,ErrorStudy_v1,2021.2.3,60.00373223214496,
Letters_1st_Run.xlsx,1,1,0,Eye-tracking is a sensor technolo*zy that can detec*k a person’s presen*ve and follow what they are lookin*b at in real-ti*ne.,0,0,0,0,,,,,,,,,0,0,0,0,49,0,49,0,,,,,,,,,,,,,8.0,Eye-tracking is a sensor technolozy that can detec,c,,sentence_trial,"[3.30816650390625, 3.294525146484375, 3.298126220703125, 3.3117218017578125, 3.307952880859375, 3.314788818359375, 3.3179473876953125, 3.308563232421875, 3.28472900390625, 3.2675018310546875, 3.27801513671875, 3.2849884033203125, 3.2938690185546875, 3.31646728515625, 3.313232421875, 3.2905120849609375, 3.2964630126953125, 3.3047332763671875, 3.2977294921875, 3.291259765625, 3.30181884765625, 3.3014068603515625, 3.3016815185546875, 3.2939910888671875, 3.289581298828125, 3.2912139892578125, 3.290802001953125, 3.2924346923828125, 3.29193115234375, 3.301055908203125]","[2.9249420166015625, 2.9066009521484375, 2.916839599609375, 2.9474029541015625, 2.9363555908203125, 2.913330078125, 2.9217071533203125, 2.933258056640625, 2.938934326171875, 2.935546875, 2.94219970703125, 2.9412841796875, 2.9307098388671875, 2.9317169189453125, 2.9341583251953125, 2.943572998046875, 2.9446868896484375, 2.9386749267578125, 2.930450439453125, 2.9311981201171875, 2.9417572021484375, 2.9195098876953125, 2.911590576171875, 2.91607666015625, 2.9160003662109375, 2.9244232177734375, 2.9163055419921875, 2.9253997802734375, 2.933868408203125, 2.9033660888671875]","[1, 1, 1, 1, 1, 1, 1, 1, 1, 1, 1, 1, 1, 1, 1, 1, 1, 1, 1, 1, 1, 1, 1, 1, 1, 1, 1, 1, 1, 1]","[1, 1, 1, 1, 1, 1, 1, 1, 1, 1, 1, 1, 1, 1, 1, 1, 1, 1, 1, 1, 1, 1, 1, 1, 1, 1, 1, 1, 1, 1]",3.297907002766927,2.9283955891927085,1.0,1.0,55.298850000000016,None,None,55.298850000000016,None,,,,,,,,,,,,,,,,,,,,,,Letters,001,2022_Jun_16_1127,ErrorStudy_v1,2021.2.3,60.00373223214496,
Letters_1st_Run.xlsx,1,1,0,Eye-tracking is a sensor technolo*zy that can detec*k a person’s presen*ve and follow what they are lookin*b at in real-ti*ne.,0,0,0,0,,,,,,,,,0,0,0,0,50,0,50,0,,,,,,,,,,,,,0,Eye-tracking is a sensor technolozy that can deteck,k,error,sentence_trial,"[3.29779052734375, 3.29559326171875, 3.296539306640625, 3.285980224609375, 3.2890472412109375, 3.293701171875, 3.29510498046875, 3.292877197265625, 3.2969207763671875, 3.3102264404296875, 3.3064422607421875, 3.3031005859375, 3.307281494140625, 3.292144775390625, 3.29949951171875, 3.3292388916015625, 3.3373260498046875, 3.3317413330078125, 3.346160888671875, 3.3377532958984375, 3.3303985595703125, 3.341796875, 3.36041259765625, 3.3636322021484375, 3.364715576171875, 3.3595428466796875, 3.364715576171875, 3.3775787353515625, 3.3697052001953125, 3.3686676025390625]","[2.9005889892578125, 2.9297332763671875, 2.9268951416015625, 2.918182373046875, 2.9214019775390625, 2.923828125, 2.9201812744140625, 2.9414520263671875, 2.944305419921875, 2.9329681396484375, 2.927642822265625, 2.9178314208984375, 2.9239959716796875, 2.9232635498046875, 2.9179229736328125, 2.922943115234375, 2.93853759765625, 2.93243408203125, 2.9283599853515625, 2.939849853515625, 2.9332275390625, 2.91448974609375, 2.934539794921875, 2.944976806640625, 2.9524383544921875, 2.949127197265625, 2.9469757080078125, 2.95623779296875, 2.9479827880859375, 2.9527587890625]","[1, 1, 1, 1, 1, 1, 1, 1, 1, 1, 1, 1, 1, 1, 1, 1, 1, 1, 1, 1, 1, 1, 1, 1, 1, 1, 1, 1, 1, 1]","[1, 1, 1, 1, 1, 1, 1, 1, 1, 1, 1, 1, 1, 1, 1, 1, 1, 1, 1, 1, 1, 1, 1, 1, 1, 1, 1, 1, 1, 1]",3.324854532877604,2.9321690877278646,1.0,1.0,55.79869279999991,None,None,55.79869279999991,None,,,,,,,,,,,,,,,,,,,,,,Letters,001,2022_Jun_16_1127,ErrorStudy_v1,2021.2.3,60.00373223214496,
Letters_1st_Run.xlsx,1,1,0,Eye-tracking is a sensor technolo*zy that can detec*k a person’s presen*ve and follow what they are lookin*b at in real-ti*ne.,0,0,0,0,,,,,,,,,0,0,0,0,51,0,51,0,,,,,,,,,,,,,0.5,Eye-tracking is a sensor technolozy that can deteck , ,,sentence_trial,"[3.3810577392578125, 3.378753662109375, 3.370391845703125, 3.3994903564453125, 3.4066619873046875, 3.395965576171875, 3.3851776123046875, 3.388519287109375, 3.395172119140625, 3.3802032470703125, 3.370880126953125, 3.35174560546875, 3.3361663818359375, 3.3317718505859375, 3.3404083251953125, 3.3697662353515625, 3.36907958984375, 3.3595428466796875, 3.363006591796875, 3.3427886962890625, 3.35076904296875, 3.364532470703125, 3.38311767578125, 3.3917999267578125, 3.3968048095703125, 3.4020843505859375, 3.411285400390625, 3.423004150390625, 3.45556640625, 3.463348388671875]","[2.966766357421875, 2.9698486328125, 2.9649810791015625, 2.952545166015625, 2.951080322265625, 2.964141845703125, 2.9602508544921875, 2.9662017822265625, 2.9671630859375, 2.95379638671875, 2.949859619140625, 2.9560699462890625, 2.9552459716796875, 2.9481658935546875, 2.951446533203125, 2.9505767822265625, 2.95245361328125, 2.9578399658203125, 2.9500274658203125, 2.9499664306640625, 2.961212158203125, 2.96246337890625, 2.9745025634765625, 2.96990966796875, 2.9777374267578125, 3.0007171630859375, 3.0131683349609375, 3.0045318603515625, 3.02545166015625, 3.029296875]","[1, 1, 1, 1, 1, 1, 1, 1, 1, 1, 1, 1, 1, 1, 1, 1, 1, 1, 1, 1, 1, 1, 1, 1, 1, 1, 1, 1, 1, 1]","[1, 1, 1, 1, 1, 1, 1, 1, 1, 1, 1, 1, 1, 1, 1, 1, 1, 1, 1, 1, 1, 1, 1, 1, 1, 1, 1, 1, 1, 1]",3.3819620768229166,2.968580627441406,1.0,1.0,56.29790969999999,None,space,56.29790969999999,None,0.9187477000000399,0.4187477000000399,,,,,,,,,,,,,,,,,,,,Letters,001,2022_Jun_16_1127,ErrorStudy_v1,2021.2.3,60.00373223214496,
Letters_1st_Run.xlsx,1,1,0,Eye-tracking is a sensor technolo*zy that can detec*k a person’s presen*ve and follow what they are lookin*b at in real-ti*ne.,0,0,0,0,,,,,,,,,0,0,0,0,52,0,52,0,,,,,,,,,,,,,1.0,Eye-tracking is a sensor technolozy that can deteck a,a,,sentence_trial,"[3.4731903076171875, 3.48333740234375, 3.60516357421875, 3.6092071533203125, 3.498504638671875, 3.4957122802734375, 3.599365234375, 3.6173553466796875, 3.6173553466796875, nan, 3.474334716796875, 3.5178985595703125, 3.52691650390625, 3.534423828125, 3.5372161865234375, 3.5343475341796875, 3.628509521484375, 3.6826171875, 3.5567169189453125, 3.543121337890625, 3.554229736328125, 3.561492919921875, 3.5337066650390625, 3.5368499755859375, 3.5657806396484375, 3.5554962158203125, 3.54559326171875, 3.5549774169921875, 3.665496826171875, 3.6140594482421875]","[3.03289794921875, 3.047882080078125, 3.0740966796875, 3.0759124755859375, 3.0779876708984375, 3.0789794921875, 3.1792755126953125, nan, nan, 3.1757965087890625, 3.0979156494140625, 3.1035919189453125, 3.1008148193359375, 3.1016693115234375, 3.1134490966796875, 3.118408203125, 3.115966796875, 3.105438232421875, 3.1054534912109375, 3.12786865234375, 3.1285247802734375, 3.1259765625, 3.1224365234375, 3.1082000732421875, 3.1131134033203125, 3.136505126953125, 3.124114990234375, 3.102508544921875, 3.1029815673828125, 3.1105804443359375]","[1, 1, 1, 1, 1, 1, 1, 1, 1, 0, 1, 1, 1, 1, 1, 1, 1, 1, 1, 1, 1, 1, 1, 1, 1, 1, 1, 1, 1, 1]","[1, 1, 1, 1, 1, 1, 1, 0, 0, 1, 1, 1, 1, 1, 1, 1, 1, 1, 1, 1, 1, 1, 1, 1, 1, 1, 1, 1, 1, 1]",nan,nan,0.9666666666666667,0.9333333333333333,56.79734179999991,None,None,56.79734179999991,None,,,,,,,,,,,,,,,,,,,,,,Letters,001,2022_Jun_16_1127,ErrorStudy_v1,2021.2.3,60.00373223214496,
Letters_1st_Run.xlsx,1,1,0,Eye-tracking is a sensor technolo*zy that can detec*k a person’s presen*ve and follow what they are lookin*b at in real-ti*ne.,0,0,0,0,,,,,,,,,0,0,0,0,53,0,53,0,,,,,,,,,,,,,1.5,Eye-tracking is a sensor technolozy that can deteck a , ,,sentence_trial,"[3.5325775146484375, 3.539276123046875, 3.52508544921875, 3.522430419921875, 3.517120361328125, 3.5114288330078125, 3.5024261474609375, 3.50042724609375, 3.5011749267578125, 3.488677978515625, 3.459564208984375, 3.4795684814453125, 3.5025177001953125, 3.5055694580078125, 3.5035552978515625, 3.5006256103515625, 3.495086669921875, 3.4803924560546875, 3.48480224609375, 3.482940673828125, 3.47515869140625, 3.478546142578125, 3.4736785888671875, 3.4575042724609375, 3.430908203125, 3.434417724609375, 3.46490478515625, 3.4818572998046875, 3.4780426025390625, 3.4699554443359375]","[3.2292327880859375, nan, nan, 3.219085693359375, 3.0980224609375, 3.0809173583984375, 3.05718994140625, 3.0667724609375, 3.0864105224609375, 3.096038818359375, 3.095916748046875, 3.0873870849609375, 3.0701446533203125, 3.0749969482421875, 3.079498291015625, 3.0718841552734375, 3.0687713623046875, 3.0651092529296875, 3.0533447265625, 3.048919677734375, 3.057403564453125, 3.057891845703125, 3.049102783203125, 3.04290771484375, 3.045989990234375, 3.0514984130859375, 3.0490570068359375, 3.0496368408203125, 3.0412445068359375, 3.0413818359375]","[1, 1, 1, 1, 1, 1, 1, 1, 1, 1, 1, 1, 1, 1, 1, 1, 1, 1, 1, 1, 1, 1, 1, 1, 1, 1, 1, 1, 1, 1]","[1, 0, 0, 1, 1, 1, 1, 1, 1, 1, 1, 1, 1, 1, 1, 1, 1, 1, 1, 1, 1, 1, 1, 1, 1, 1, 1, 1, 1, 1]",3.4893407185872394,nan,1.0,0.9333333333333333,57.29742299999998,None,None,57.29742299999998,None,,,,,,,,,,,,,,,,,,,,,,Letters,001,2022_Jun_16_1127,ErrorStudy_v1,2021.2.3,60.00373223214496,
Letters_1st_Run.xlsx,1,1,0,Eye-tracking is a sensor technolo*zy that can detec*k a person’s presen*ve and follow what they are lookin*b at in real-ti*ne.,0,0,0,0,,,,,,,,,0,0,0,0,54,0,54,0,,,,,,,,,,,,,2.0,Eye-tracking is a sensor technolozy that can deteck a p,p,,sentence_trial,"[3.4709625244140625, 3.475006103515625, 3.4685821533203125, 3.5742340087890625, 3.5868682861328125, 3.4796142578125, 3.4638214111328125, 3.4596405029296875, 3.4736785888671875, 3.4670562744140625, 3.4596099853515625, 3.5829925537109375, nan, nan, nan, nan, nan, 2.75482177734375, 2.75482177734375, 3.31414794921875, 3.31414794921875, 3.4016571044921875, 3.428375244140625, 3.4195404052734375, 3.4364166259765625, 3.4421844482421875, 3.4442291259765625, 3.4354705810546875, 3.4360504150390625]","[3.0456085205078125, 3.0489044189453125, 3.04144287109375, 3.0449066162109375, 3.0589447021484375, 3.05902099609375, 3.0335540771484375, 3.035247802734375, 3.05810546875, 3.05487060546875, 3.0251922607421875, 3.104034423828125, nan, nan, nan, nan, nan, nan, nan, 2.9193572998046875, 2.9711761474609375, 3.0300445556640625, 3.02752685546875, 3.0116424560546875, 3.021942138671875, 3.02056884765625, 3.0240020751953125, 3.0302886962890625, 3.0374755859375]","[1, 1, 1, 1, 1, 1, 1, 1, 1, 1, 1, 1, 0, 0, 0, 0, 0, 1, 1, 1, 1, 1, 1, 1, 1, 1, 1, 1, 1]","[1, 1, 1, 1, 1, 1, 1, 1, 1, 1, 1, 1, 0, 0, 0, 0, 0, 0, 0, 1, 1, 1, 1, 1, 1, 1, 1, 1, 1]",nan,nan,0.8275862068965517,0.7586206896551724,57.81235909999998,None,None,57.81235909999998,None,,,,,,,,,,,,,,,,,,,,,,Letters,001,2022_Jun_16_1127,ErrorStudy_v1,2021.2.3,60.00373223214496,
Letters_1st_Run.xlsx,1,1,0,Eye-tracking is a sensor technolo*zy that can detec*k a person’s presen*ve and follow what they are lookin*b at in real-ti*ne.,0,0,0,0,,,,,,,,,0,0,0,0,55,0,55,0,,,,,,,,,,,,,2.5,Eye-tracking is a sensor technolozy that can deteck a pe,e,,sentence_trial,"[3.4449005126953125, 3.4780120849609375, 3.4474639892578125, 3.4534912109375, 3.444610595703125, 3.4436187744140625, 3.4527435302734375, 3.452178955078125, 3.4620208740234375, 3.4547882080078125, 3.4493560791015625, 3.4422760009765625, 3.4339752197265625, 3.42474365234375, 3.369476318359375, 3.3376922607421875, 3.3641204833984375, 3.421051025390625, 3.479736328125, 3.479736328125, nan, 3.25909423828125, 3.30340576171875, 3.2889404296875, 3.2898712158203125, 3.2645721435546875, 3.267486572265625, 3.2700042724609375, 3.2598876953125, 3.2588043212890625]","[3.0420684814453125, 3.0616302490234375, 3.0486602783203125, 3.0528106689453125, 3.051666259765625, 3.03961181640625, 3.06134033203125, 3.0657958984375, 3.0739593505859375, 3.0796966552734375, 3.055450439453125, 3.0267333984375, 3.02880859375, 3.020233154296875, 3.007843017578125, 2.9944305419921875, 2.9884185791015625, 3.0841064453125, nan, nan, 3.0463104248046875, 2.933990478515625, 2.93914794921875, 2.9333038330078125, 2.9215545654296875, 2.90863037109375, 2.9182281494140625, 2.911163330078125, 2.9102630615234375, 2.9019012451171875]","[1, 1, 1, 1, 1, 1, 1, 1, 1, 1, 1, 1, 1, 1, 1, 1, 1, 1, 1, 1, 0, 1, 1, 1, 1, 1, 1, 1, 1, 1]","[1, 1, 1, 1, 1, 1, 1, 1, 1, 1, 1, 1, 1, 1, 1, 1, 1, 1, 0, 0, 1, 1, 1, 1, 1, 1, 1, 1, 1, 1]",nan,nan,0.9666666666666667,0.9333333333333333,58.311475599999994,None,None,58.311475599999994,None,,,,,,,,,,,,,,,,,,,,,,Letters,001,2022_Jun_16_1127,ErrorStudy_v1,2021.2.3,60.00373223214496,
