stim_file,have_break,press_spacebar_instructions,just_pay_attention,sentence_stim,sentence_blocks.thisRepN,sentence_blocks.thisTrialN,sentence_blocks.thisN,sentence_blocks.thisIndex,press_spacebar_instr_loop.thisRepN,press_spacebar_instr_loop.thisTrialN,press_spacebar_instr_loop.thisN,press_spacebar_instr_loop.thisIndex,just_pay_attn_loop.thisRepN,just_pay_attn_loop.thisTrialN,just_pay_attn_loop.thisN,just_pay_attn_loop.thisIndex,sentence_loop.thisRepN,sentence_loop.thisTrialN,sentence_loop.thisN,sentence_loop.thisIndex,letters_loop.thisRepN,letters_loop.thisTrialN,letters_loop.thisN,letters_loop.thisIndex,textWelcome.started,textWelcome.stopped,keyWelcome.keys,keyWelcome.rt,keyWelcome.started,keyWelcome.stopped,textSentenceInstructions.started,textSentenceInstructions.stopped,keySentenceInstructions.keys,keySentenceInstructions.rt,keySentenceInstructions.started,keySentenceInstructions.stopped,last_error_t,visible_sentence,current_character,sentence_type,phase_type,lp_diam,rp_diam,lp_validity,rp_validity,lp_diam_mean,rp_diam_mean,lp_validity_mean,rp_validity_mean,textSentenceTrial.started,textSentenceTrial.stopped,keySentenceTrial.keys,keySentenceTrial.started,keySentenceTrial.stopped,last_error_rt,keySentenceTrial.rt,participant,session,Gender,date,expName,psychopyVersion,frameRate,
,,,,,,,,,,,,,,,,,,,,,,,,,18.9520921000003,None,space,2.4179399000004196,18.9520921000003,None,,,,,,,,,,,,,,,,,,,,,,,,,,,rn,001,male,2022_Jul_21_1243,ErrorStudy_v1,2021.2.3,59.923298178089695,
Letters_1st_Run.xlsx,1,1,0,,0,0,0,0,0,0,0,0,,,,,,,,,,,,,,,,,,,23.507434500000272,None,space,26.414765600000464,23.507434500000272,None,,,,,,,,,,,,,,,,,,,,,rn,001,male,2022_Jul_21_1243,ErrorStudy_v1,2021.2.3,59.923298178089695,
Letters_1st_Run.xlsx,1,1,0,Eye-tracking is a sensor technolo*zy that can detec*k a person’s presen*ve and follow what they are lookin*b at in real-ti*ne.,0,0,0,0,,,,,,,,,0,0,0,0,0,0,0,0,,,,,,,,,,,,,-999.5,E,E,,sentence_trial,"[3.4030609130859375, 3.400177001953125, 3.3966217041015625, 3.400604248046875, 3.4036712646484375, 3.399993896484375, 3.3981475830078125, 3.4060211181640625, 3.404754638671875, 3.3935394287109375, 3.3973846435546875, 3.403350830078125, 3.4026336669921875, 3.4024658203125, 3.403228759765625, 3.4065399169921875, 3.41363525390625, 3.4141082763671875, 3.412017822265625, 3.4215545654296875, 3.416656494140625, 3.3989105224609375, 3.3896484375, 3.396148681640625, 3.3968353271484375, 3.4043731689453125, 3.412750244140625, 3.4103546142578125, 3.415863037109375, 3.433135986328125]","[3.1211395263671875, 3.1177825927734375, 3.13018798828125, 3.131439208984375, 3.124053955078125, 3.1234130859375, 3.1253662109375, 3.1219024658203125, 3.116180419921875, 3.1114654541015625, 3.1189422607421875, 3.1308441162109375, 3.1296844482421875, 3.13104248046875, 3.143280029296875, 3.1406402587890625, 3.141571044921875, 3.150909423828125, 3.1599273681640625, 3.1626434326171875, 3.1506805419921875, 3.1395416259765625, 3.131622314453125, 3.13116455078125, 3.1271209716796875, 3.1289215087890625, 3.1337127685546875, 3.131500244140625, 3.1301422119140625, 3.1370697021484375]","[1, 1, 1, 1, 1, 1, 1, 1, 1, 1, 1, 1, 1, 1, 1, 1, 1, 1, 1, 1, 1, 1, 1, 1, 1, 1, 1, 1, 1, 1]","[1, 1, 1, 1, 1, 1, 1, 1, 1, 1, 1, 1, 1, 1, 1, 1, 1, 1, 1, 1, 1, 1, 1, 1, 1, 1, 1, 1, 1, 1]",3.405272928873698,3.132463073730469,1.0,1.0,49.9709899999998,None,None,49.9709899999998,None,,,rn,001,male,2022_Jul_21_1243,ErrorStudy_v1,2021.2.3,59.923298178089695,
Letters_1st_Run.xlsx,1,1,0,Eye-tracking is a sensor technolo*zy that can detec*k a person’s presen*ve and follow what they are lookin*b at in real-ti*ne.,0,0,0,0,,,,,,,,,0,0,0,0,1,0,1,0,,,,,,,,,,,,,-999.0,Ey,y,,sentence_trial,"[3.4472808837890625, 3.454864501953125, 3.457794189453125, 3.46942138671875, 3.475860595703125, 3.48028564453125, 3.4915008544921875, 3.503662109375, 3.518646240234375, 3.525970458984375, 3.5205078125, 3.5239105224609375, 3.5316009521484375, 3.5312347412109375, 3.5245513916015625, 3.5246429443359375, 3.5187225341796875, 3.5117645263671875, 3.504791259765625, 3.49224853515625, 3.4837188720703125, 3.46710205078125, 3.4601898193359375, 3.45013427734375, 3.443328857421875, 3.4318389892578125, 3.4249114990234375, 3.4160919189453125, 3.40826416015625]","[3.1424102783203125, 3.1566162109375, 3.1577606201171875, 3.1593780517578125, 3.164703369140625, 3.17718505859375, 3.184600830078125, 3.184051513671875, 3.18701171875, 3.200286865234375, 3.19976806640625, 3.204376220703125, 3.2067718505859375, 3.2060394287109375, 3.2113189697265625, 3.2052459716796875, 3.2006683349609375, 3.1995086669921875, 3.191864013671875, 3.1814422607421875, 3.1699676513671875, 3.15826416015625, 3.1557159423828125, 3.144439697265625, 3.147125244140625, 3.146881103515625, 3.13104248046875, 3.1273040771484375, 3.138153076171875]","[1, 1, 1, 1, 1, 1, 1, 1, 1, 1, 1, 1, 1, 1, 1, 1, 1, 1, 1, 1, 1, 1, 1, 1, 1, 1, 1, 1, 1]","[1, 1, 1, 1, 1, 1, 1, 1, 1, 1, 1, 1, 1, 1, 1, 1, 1, 1, 1, 1, 1, 1, 1, 1, 1, 1, 1, 1, 1]",3.482580776872306,3.173789714944774,1.0,1.0,50.48819009999988,None,None,50.48819009999988,None,,,rn,001,male,2022_Jul_21_1243,ErrorStudy_v1,2021.2.3,59.923298178089695,
Letters_1st_Run.xlsx,1,1,0,Eye-tracking is a sensor technolo*zy that can detec*k a person’s presen*ve and follow what they are lookin*b at in real-ti*ne.,0,0,0,0,,,,,,,,,0,0,0,0,2,0,2,0,,,,,,,,,,,,,-998.5,Eye,e,,sentence_trial,"[3.4087066650390625, 3.4057159423828125, 3.402313232421875, 3.4028472900390625, 3.3975372314453125, 3.4003448486328125, 3.4050750732421875, 3.4056243896484375, 3.40716552734375, 3.40802001953125, 3.4086761474609375, 3.40826416015625, 3.406158447265625, 3.407958984375, 3.4185333251953125, 3.4133453369140625, 3.4213714599609375, 3.428558349609375, 3.423095703125, 3.4280853271484375, 3.4362030029296875, 3.437164306640625, 3.4352874755859375, 3.4272003173828125, 3.424346923828125, 3.4300689697265625, 3.432220458984375, 3.42803955078125, 3.4249267578125, 3.43292236328125]","[3.1310272216796875, 3.114593505859375, 3.1172027587890625, 3.129180908203125, 3.1266326904296875, 3.12274169921875, 3.126983642578125, 3.1284027099609375, 3.126922607421875, 3.129669189453125, 3.1319122314453125, 3.1267242431640625, 3.137725830078125, 3.1414031982421875, 3.1386871337890625, 3.1417388916015625, 3.1478729248046875, 3.1528472900390625, 3.1548919677734375, 3.16082763671875, 3.169921875, 3.1656494140625, 3.167694091796875, 3.1726837158203125, 3.1692962646484375, 3.1692962646484375, 3.1681976318359375, 3.166290283203125, 3.1727447509765625, 3.178375244140625]","[1, 1, 1, 1, 1, 1, 1, 1, 1, 1, 1, 1, 1, 1, 1, 1, 1, 1, 1, 1, 1, 1, 1, 1, 1, 1, 1, 1, 1, 1]","[1, 1, 1, 1, 1, 1, 1, 1, 1, 1, 1, 1, 1, 1, 1, 1, 1, 1, 1, 1, 1, 1, 1, 1, 1, 1, 1, 1, 1, 1]",3.417192586263021,3.146271260579427,1.0,1.0,50.973139800000354,None,None,50.973139800000354,None,,,rn,001,male,2022_Jul_21_1243,ErrorStudy_v1,2021.2.3,59.923298178089695,
Letters_1st_Run.xlsx,1,1,0,Eye-tracking is a sensor technolo*zy that can detec*k a person’s presen*ve and follow what they are lookin*b at in real-ti*ne.,0,0,0,0,,,,,,,,,0,0,0,0,3,0,3,0,,,,,,,,,,,,,-998.0,Eye-,-,,sentence_trial,"[3.435455322265625, 3.4365692138671875, 3.4353485107421875, 3.4285736083984375, 3.429290771484375, 3.431732177734375, 3.4326324462890625, 3.4333953857421875, 3.43463134765625, 3.43511962890625, 3.4355926513671875, 3.43731689453125, 3.4426727294921875, 3.4457244873046875, 3.44970703125, 3.45245361328125, 3.4540863037109375, 3.4588470458984375, 3.4677886962890625, 3.47637939453125, 3.488250732421875, 3.494293212890625, 3.50274658203125, 3.5120697021484375, 3.5174102783203125, 3.5276641845703125, 3.5303802490234375, 3.5330810546875, 3.5418701171875, 3.537994384765625]","[3.174346923828125, 3.177581787109375, 3.1781463623046875, 3.17315673828125, 3.1660919189453125, 3.164947509765625, 3.1695404052734375, 3.17352294921875, 3.177337646484375, 3.1763458251953125, 3.178863525390625, 3.1827392578125, 3.1849212646484375, 3.183135986328125, 3.1920166015625, 3.189697265625, 3.1881103515625, 3.20318603515625, 3.2154693603515625, 3.2164459228515625, 3.213714599609375, 3.218109130859375, 3.2245330810546875, 3.225189208984375, 3.23004150390625, 3.2374725341796875, 3.2439727783203125, 3.2453460693359375, 3.2476806640625, 3.2479705810546875]","[1, 1, 1, 1, 1, 1, 1, 1, 1, 1, 1, 1, 1, 1, 1, 1, 1, 1, 1, 1, 1, 1, 1, 1, 1, 1, 1, 1, 1, 1]","[1, 1, 1, 1, 1, 1, 1, 1, 1, 1, 1, 1, 1, 1, 1, 1, 1, 1, 1, 1, 1, 1, 1, 1, 1, 1, 1, 1, 1, 1]",3.4679692586263022,3.19998779296875,1.0,1.0,51.473737000000256,None,None,51.473737000000256,None,,,rn,001,male,2022_Jul_21_1243,ErrorStudy_v1,2021.2.3,59.923298178089695,
Letters_1st_Run.xlsx,1,1,0,Eye-tracking is a sensor technolo*zy that can detec*k a person’s presen*ve and follow what they are lookin*b at in real-ti*ne.,0,0,0,0,,,,,,,,,0,0,0,0,4,0,4,0,,,,,,,,,,,,,-997.5,Eye-t,t,,sentence_trial,"[3.538909912109375, 3.543792724609375, 3.5467681884765625, 3.5504302978515625, 3.5432891845703125, 3.5436248779296875, 3.5485076904296875, 3.5440521240234375, 3.5393829345703125, 3.5384063720703125, 3.5320587158203125, 3.5251922607421875, 3.521026611328125, 3.5304412841796875, 3.53143310546875, 3.5211029052734375, 3.5282440185546875, 3.53057861328125, 3.531097412109375, 3.5363922119140625, 3.541107177734375, 3.5481109619140625, 3.5510711669921875, 3.5493316650390625, 3.5471343994140625, 3.547698974609375, 3.5458831787109375, 3.5349273681640625, 3.52874755859375, 3.534912109375]","[3.2568206787109375, 3.2611541748046875, 3.2585296630859375, 3.2563934326171875, 3.2624053955078125, 3.267974853515625, 3.2674713134765625, 3.2705078125, 3.27325439453125, 3.2708740234375, 3.2617950439453125, 3.25537109375, 3.2562408447265625, 3.2615966796875, 3.2647705078125, 3.260833740234375, 3.25885009765625, 3.26019287109375, 3.267730712890625, 3.2732391357421875, 3.270111083984375, 3.2682037353515625, 3.2821044921875, 3.2823333740234375, 3.2694549560546875, 3.2758636474609375, 3.2805938720703125, 3.2747802734375, 3.2734222412109375, 3.274383544921875]","[1, 1, 1, 1, 1, 1, 1, 1, 1, 1, 1, 1, 1, 1, 1, 1, 1, 1, 1, 1, 1, 1, 1, 1, 1, 1, 1, 1, 1, 1]","[1, 1, 1, 1, 1, 1, 1, 1, 1, 1, 1, 1, 1, 1, 1, 1, 1, 1, 1, 1, 1, 1, 1, 1, 1, 1, 1, 1, 1, 1]",3.5384552001953127,3.267241923014323,1.0,1.0,51.97443010000006,None,None,51.97443010000006,None,,,rn,001,male,2022_Jul_21_1243,ErrorStudy_v1,2021.2.3,59.923298178089695,
Letters_1st_Run.xlsx,1,1,0,Eye-tracking is a sensor technolo*zy that can detec*k a person’s presen*ve and follow what they are lookin*b at in real-ti*ne.,0,0,0,0,,,,,,,,,0,0,0,0,5,0,5,0,,,,,,,,,,,,,-997.0,Eye-tr,r,,sentence_trial,"[3.5330657958984375, 3.529937744140625, 3.529937744140625, 3.5267333984375, 3.522918701171875, 3.5216064453125, 3.5223236083984375, 3.52020263671875, 3.516448974609375, 3.51776123046875, 3.5228271484375, 3.5225372314453125, 3.5214996337890625, 3.5201263427734375, 3.5218353271484375, 3.5325775146484375, 3.5334014892578125, 3.525909423828125, 3.531280517578125, 3.539886474609375, 3.54901123046875, 3.558868408203125, 3.5638885498046875, 3.561126708984375, 3.564117431640625, 3.5708770751953125, 3.5773162841796875, 3.57891845703125, 3.57049560546875, nan]","[3.278289794921875, 3.27606201171875, 3.27606201171875, 3.26239013671875, 3.2567901611328125, 3.2597198486328125, 3.263519287109375, 3.269561767578125, 3.260009765625, 3.255279541015625, 3.264678955078125, 3.26800537109375, 3.273590087890625, 3.2761383056640625, 3.2748260498046875, 3.2756500244140625, 3.27410888671875, 3.2725067138671875, 3.273468017578125, 3.2723846435546875, 3.2745208740234375, 3.273651123046875, 3.276580810546875, 3.2883758544921875, 3.2944488525390625, 3.2904815673828125, 3.2917022705078125, 3.2985076904296875, 3.2844696044921875, nan]","[1, 1, 1, 1, 1, 1, 1, 1, 1, 1, 1, 1, 1, 1, 1, 1, 1, 1, 1, 1, 1, 1, 1, 1, 1, 1, 1, 1, 1, 0]","[1, 1, 1, 1, 1, 1, 1, 1, 1, 1, 1, 1, 1, 1, 1, 1, 1, 1, 1, 1, 1, 1, 1, 1, 1, 1, 1, 1, 1, 0]",nan,nan,0.9666666666666667,0.9666666666666667,52.4750954000001,None,None,52.4750954000001,None,,,rn,001,male,2022_Jul_21_1243,ErrorStudy_v1,2021.2.3,59.923298178089695,
Letters_1st_Run.xlsx,1,1,0,Eye-tracking is a sensor technolo*zy that can detec*k a person’s presen*ve and follow what they are lookin*b at in real-ti*ne.,0,0,0,0,,,,,,,,,0,0,0,0,6,0,6,0,,,,,,,,,,,,,-996.5,Eye-tra,a,,sentence_trial,"[nan, nan, nan, 3.307342529296875, 3.307342529296875, 3.52362060546875, 3.629638671875, 3.6237335205078125, 3.64068603515625, 3.652099609375, 3.663665771484375, 3.6746063232421875, 3.674713134765625, 3.680511474609375, 3.680511474609375, 3.687774658203125, 3.687774658203125, 3.6833953857421875, 3.6833953857421875, 3.6833953857421875, 3.6833953857421875, 3.6749267578125, 3.6749267578125, 3.6505126953125, 3.6505126953125, nan, nan, nan, nan, nan]","[nan, nan, nan, nan, nan, 3.3887481689453125, 3.287841796875, 3.3087158203125, 3.364044189453125, 3.3778228759765625, 3.3752288818359375, 3.373687744140625, 3.3784637451171875, 3.396453857421875, 3.396453857421875, 3.3942718505859375, 3.3942718505859375, 3.3993682861328125, 3.3993682861328125, 3.4043731689453125, 3.4043731689453125, 3.3923187255859375, 3.3923187255859375, 3.376007080078125, 3.376007080078125, 3.394012451171875, nan, nan, nan, nan]","[0, 0, 0, 1, 1, 1, 1, 1, 1, 1, 1, 1, 1, 1, 1, 1, 1, 1, 1, 1, 1, 1, 1, 1, 1, 0, 0, 0, 0, 0]","[0, 0, 0, 0, 0, 1, 1, 1, 1, 1, 1, 1, 1, 1, 1, 1, 1, 1, 1, 1, 1, 1, 1, 1, 1, 1, 0, 0, 0, 0]",nan,nan,0.7333333333333333,0.7,52.975707700000385,None,None,52.975707700000385,None,,,rn,001,male,2022_Jul_21_1243,ErrorStudy_v1,2021.2.3,59.923298178089695,
Letters_1st_Run.xlsx,1,1,0,Eye-tracking is a sensor technolo*zy that can detec*k a person’s presen*ve and follow what they are lookin*b at in real-ti*ne.,0,0,0,0,,,,,,,,,0,0,0,0,7,0,7,0,,,,,,,,,,,,,-996.0,Eye-trac,c,,sentence_trial,"[nan, nan, nan, 3.319061279296875, 3.319061279296875, 3.433013916015625, 3.433013916015625, 3.423187255859375, 3.423187255859375, 3.4615020751953125, nan, 3.368682861328125, 3.368682861328125, 3.41815185546875, 3.41815185546875, 3.4350738525390625, 3.4350738525390625, 3.4555511474609375, 3.4555511474609375, 3.4718475341796875, 3.4718475341796875, 3.482086181640625, 3.482086181640625, 3.4979400634765625, 3.5055694580078125, 3.50823974609375, 3.467742919921875, nan, nan, nan]","[nan, nan, nan, 3.0135345458984375, 3.0135345458984375, 3.1524505615234375, 3.1524505615234375, 3.167205810546875, 3.167205810546875, 3.1552581787109375, 3.136627197265625, 3.1353607177734375, 3.1353607177734375, 3.1515655517578125, 3.1515655517578125, 3.1580810546875, 3.1580810546875, 3.164703369140625, 3.164703369140625, 3.18157958984375, 3.18157958984375, 3.1895599365234375, 3.1895599365234375, 3.18621826171875, 3.2003326416015625, 3.2126617431640625, 3.198822021484375, 2.841156005859375, 2.51708984375, nan]","[0, 0, 0, 1, 1, 1, 1, 1, 1, 1, 0, 1, 1, 1, 1, 1, 1, 1, 1, 1, 1, 1, 1, 1, 1, 1, 1, 0, 0, 0]","[0, 0, 0, 1, 1, 1, 1, 1, 1, 1, 1, 1, 1, 1, 1, 1, 1, 1, 1, 1, 1, 1, 1, 1, 1, 1, 1, 1, 1, 0]",nan,nan,0.7666666666666667,0.8666666666666667,53.47620900000038,None,None,53.47620900000038,None,,,rn,001,male,2022_Jul_21_1243,ErrorStudy_v1,2021.2.3,59.923298178089695,
Letters_1st_Run.xlsx,1,1,0,Eye-tracking is a sensor technolo*zy that can detec*k a person’s presen*ve and follow what they are lookin*b at in real-ti*ne.,0,0,0,0,,,,,,,,,0,0,0,0,8,0,8,0,,,,,,,,,,,,,-995.5,Eye-track,k,,sentence_trial,"[nan, nan, nan, 2.7947540283203125, 2.7947540283203125, 3.439056396484375, 3.478179931640625, 3.47265625, 3.4578857421875, 3.45526123046875, 3.471343994140625, 3.4713897705078125, 3.46917724609375, 3.47808837890625, 3.48931884765625, 3.4897308349609375, 3.4932403564453125, 3.5050506591796875, 3.5135040283203125, 3.5247650146484375, 3.531494140625, 3.544281005859375, 3.553436279296875, 3.557342529296875, 3.507476806640625, nan, nan, nan, nan]","[nan, nan, nan, 2.9852294921875, 2.9852294921875, 3.0890045166015625, 3.1336669921875, 3.1231536865234375, 3.1223907470703125, 3.123992919921875, 3.1301422119140625, 3.1373291015625, 3.1360015869140625, 3.13702392578125, 3.1481170654296875, 3.1546783447265625, 3.15283203125, 3.1686553955078125, 3.16558837890625, 3.16973876953125, 3.187835693359375, 3.2108306884765625, 3.216766357421875, 3.2211761474609375, 3.073211669921875, 2.7874298095703125, nan, nan, nan]","[0, 0, 0, 1, 1, 1, 1, 1, 1, 1, 1, 1, 1, 1, 1, 1, 1, 1, 1, 1, 1, 1, 1, 1, 1, 0, 0, 0, 0]","[0, 0, 0, 1, 1, 1, 1, 1, 1, 1, 1, 1, 1, 1, 1, 1, 1, 1, 1, 1, 1, 1, 1, 1, 1, 1, 0, 0, 0]",nan,nan,0.7586206896551724,0.7931034482758621,53.97683400000005,None,None,53.97683400000005,None,,,rn,001,male,2022_Jul_21_1243,ErrorStudy_v1,2021.2.3,59.923298178089695,
Letters_1st_Run.xlsx,1,1,0,Eye-tracking is a sensor technolo*zy that can detec*k a person’s presen*ve and follow what they are lookin*b at in real-ti*ne.,0,0,0,0,,,,,,,,,0,0,0,0,9,0,9,0,,,,,,,,,,,,,-995.0,Eye-tracki,i,,sentence_trial,"[2.6123809814453125, 2.6123809814453125, 3.4994354248046875, 3.4994354248046875, 3.52069091796875, 3.5798492431640625, 3.594329833984375, 3.599884033203125, 3.60626220703125, 3.621124267578125, 3.6326446533203125, 3.6483306884765625, 3.6607666015625, 3.651580810546875, 3.665924072265625, 3.6797943115234375, 3.6925811767578125, 3.7015228271484375, 3.721832275390625, 3.7349700927734375, 3.7435760498046875, 3.7468414306640625, 3.7479400634765625, 3.759613037109375, 3.7700042724609375, 3.777557373046875, 3.7873992919921875, 3.7888031005859375, 3.7889556884765625, 3.7899322509765625]","[nan, 3.114044189453125, 3.180419921875, 3.2581634521484375, 3.275848388671875, 3.2884674072265625, 3.2842254638671875, 3.2940521240234375, 3.306060791015625, 3.30706787109375, 3.312896728515625, 3.3145294189453125, 3.3322296142578125, 3.3464202880859375, 3.3482513427734375, 3.357757568359375, 3.3750152587890625, 3.3843994140625, 3.3932647705078125, 3.39312744140625, 3.3986358642578125, 3.40435791015625, 3.4078521728515625, 3.4110565185546875, 3.42333984375, 3.4321136474609375, 3.4324951171875, 3.432281494140625, 3.436431884765625, 3.4352569580078125]","[1, 1, 1, 1, 1, 1, 1, 1, 1, 1, 1, 1, 1, 1, 1, 1, 1, 1, 1, 1, 1, 1, 1, 1, 1, 1, 1, 1, 1, 1]","[0, 1, 1, 1, 1, 1, 1, 1, 1, 1, 1, 1, 1, 1, 1, 1, 1, 1, 1, 1, 1, 1, 1, 1, 1, 1, 1, 1, 1, 1]",3.6078781127929687,nan,1.0,0.9666666666666667,54.46075470000051,None,None,54.46075470000051,None,,,rn,001,male,2022_Jul_21_1243,ErrorStudy_v1,2021.2.3,59.923298178089695,
Letters_1st_Run.xlsx,1,1,0,Eye-tracking is a sensor technolo*zy that can detec*k a person’s presen*ve and follow what they are lookin*b at in real-ti*ne.,0,0,0,0,,,,,,,,,0,0,0,0,10,0,10,0,,,,,,,,,,,,,-994.5,Eye-trackin,n,,sentence_trial,"[3.7892608642578125, 3.7877655029296875, 3.7799072265625, 3.769500732421875, 3.75689697265625, 3.7559356689453125, 3.756683349609375, 3.7550201416015625, 3.7483367919921875, 3.743377685546875, 3.738250732421875, 3.7345123291015625, 3.7371368408203125, 3.739013671875, 3.7344970703125, 3.7325286865234375, 3.7277679443359375, 3.724456787109375, 3.7207794189453125, 3.7127838134765625, 3.7106781005859375, 3.7122650146484375, 3.7102203369140625, 3.704498291015625, 3.7040557861328125, 3.7034149169921875, 3.7037200927734375, 3.7015533447265625, 3.695709228515625, 3.6992645263671875]","[3.433135986328125, 3.4344024658203125, 3.4349822998046875, 3.430908203125, 3.427001953125, 3.420745849609375, 3.4215087890625, 3.4231719970703125, 3.4105377197265625, 3.4151153564453125, 3.4201202392578125, 3.4126129150390625, 3.408935546875, 3.403106689453125, 3.4047698974609375, 3.4126739501953125, 3.4079742431640625, 3.4012451171875, 3.4051055908203125, 3.40625, 3.3988494873046875, 3.3976593017578125, 3.4058074951171875, 3.4112396240234375, 3.4026031494140625, 3.3927154541015625, 3.3935546875, 3.394073486328125, 3.397552490234375, 3.40216064453125]","[1, 1, 1, 1, 1, 1, 1, 1, 1, 1, 1, 1, 1, 1, 1, 1, 1, 1, 1, 1, 1, 1, 1, 1, 1, 1, 1, 1, 1, 1]","[1, 1, 1, 1, 1, 1, 1, 1, 1, 1, 1, 1, 1, 1, 1, 1, 1, 1, 1, 1, 1, 1, 1, 1, 1, 1, 1, 1, 1, 1]",3.7329930623372394,3.411017354329427,1.0,1.0,54.96125920000031,None,None,54.96125920000031,None,,,rn,001,male,2022_Jul_21_1243,ErrorStudy_v1,2021.2.3,59.923298178089695,
Letters_1st_Run.xlsx,1,1,0,Eye-tracking is a sensor technolo*zy that can detec*k a person’s presen*ve and follow what they are lookin*b at in real-ti*ne.,0,0,0,0,,,,,,,,,0,0,0,0,11,0,11,0,,,,,,,,,,,,,-994.0,Eye-tracking,g,,sentence_trial,"[3.705657958984375, 3.7082061767578125, 3.7096099853515625, 3.7047119140625, 3.7028045654296875, 3.7035369873046875, 3.7114715576171875, 3.7107696533203125, 3.709808349609375, 3.7101287841796875, 3.7108612060546875, 3.7151947021484375, 3.7182159423828125, 3.7166290283203125, 3.713836669921875, 3.71136474609375, 3.7122955322265625, 3.7081756591796875, 3.699310302734375, 3.6932220458984375, 3.6866912841796875, 3.6911468505859375, 3.69354248046875, 3.664825439453125, 3.6431427001953125, 3.64642333984375, 3.647003173828125, 3.64605712890625, 3.6470947265625, 3.6486053466796875]","[3.4043121337890625, 3.4027862548828125, 3.3979949951171875, 3.3972320556640625, 3.398956298828125, 3.394989013671875, 3.3862457275390625, 3.38262939453125, 3.38922119140625, 3.390533447265625, 3.38641357421875, 3.38336181640625, 3.3825225830078125, 3.384063720703125, 3.378875732421875, 3.370208740234375, 3.3676605224609375, 3.370147705078125, 3.3638153076171875, 3.35577392578125, 3.3501129150390625, 3.3437042236328125, 3.3474273681640625, 3.3526153564453125, 3.3291778564453125, 3.319061279296875, 3.323516845703125, 3.3221282958984375, 3.319122314453125, 3.315826416015625]","[1, 1, 1, 1, 1, 1, 1, 1, 1, 1, 1, 1, 1, 1, 1, 1, 1, 1, 1, 1, 1, 1, 1, 1, 1, 1, 1, 1, 1, 1]","[1, 1, 1, 1, 1, 1, 1, 1, 1, 1, 1, 1, 1, 1, 1, 1, 1, 1, 1, 1, 1, 1, 1, 1, 1, 1, 1, 1, 1, 1]",3.693011474609375,3.3670145670572915,1.0,1.0,55.46203080000032,None,None,55.46203080000032,None,,,rn,001,male,2022_Jul_21_1243,ErrorStudy_v1,2021.2.3,59.923298178089695,
Letters_1st_Run.xlsx,1,1,0,Eye-tracking is a sensor technolo*zy that can detec*k a person’s presen*ve and follow what they are lookin*b at in real-ti*ne.,0,0,0,0,,,,,,,,,0,0,0,0,12,0,12,0,,,,,,,,,,,,,-993.5,Eye-tracking , ,,sentence_trial,"[3.6402587890625, 3.637664794921875, 3.64349365234375, 3.6506195068359375, 3.656890869140625, 3.6629791259765625, 3.66448974609375, 3.6574859619140625, 3.658233642578125, 3.658905029296875, 3.660400390625, 3.67169189453125, 3.6822357177734375, 3.6853179931640625, 3.688995361328125, 3.6983795166015625, 3.7028350830078125, 3.6998443603515625, 3.704986572265625, 3.709075927734375, 3.711700439453125, 3.7069091796875, 3.7058258056640625, 3.7044219970703125, 3.701812744140625, 3.705963134765625, 3.704254150390625, 3.69781494140625, 3.6983489990234375, 3.70709228515625]","[3.31085205078125, 3.3154144287109375, 3.3215484619140625, 3.3291473388671875, 3.3394775390625, 3.338958740234375, 3.3281707763671875, 3.3189239501953125, 3.3191680908203125, 3.323577880859375, 3.3288421630859375, 3.3323516845703125, 3.3447418212890625, 3.334075927734375, 3.3327178955078125, 3.351226806640625, 3.3536376953125, 3.3585968017578125, 3.3627166748046875, 3.358795166015625, 3.363372802734375, 3.361724853515625, 3.365875244140625, 3.3663330078125, 3.3700408935546875, 3.3767242431640625, 3.374481201171875, 3.3809967041015625, 3.3881072998046875, 3.3834381103515625]","[1, 1, 1, 1, 1, 1, 1, 1, 1, 1, 1, 1, 1, 1, 1, 1, 1, 1, 1, 1, 1, 1, 1, 1, 1, 1, 1, 1, 1, 1]","[1, 1, 1, 1, 1, 1, 1, 1, 1, 1, 1, 1, 1, 1, 1, 1, 1, 1, 1, 1, 1, 1, 1, 1, 1, 1, 1, 1, 1, 1]",3.682630920410156,3.3478012084960938,1.0,1.0,55.96269510000002,None,None,55.96269510000002,None,,,rn,001,male,2022_Jul_21_1243,ErrorStudy_v1,2021.2.3,59.923298178089695,
Letters_1st_Run.xlsx,1,1,0,Eye-tracking is a sensor technolo*zy that can detec*k a person’s presen*ve and follow what they are lookin*b at in real-ti*ne.,0,0,0,0,,,,,,,,,0,0,0,0,13,0,13,0,,,,,,,,,,,,,-993.0,Eye-tracking i,i,,sentence_trial,"[3.703369140625, 3.69793701171875, 3.694732666015625, 3.6907958984375, 3.691619873046875, 3.682769775390625, 3.678070068359375, 3.682220458984375, 3.6812286376953125, 3.6815948486328125, 3.687835693359375, 3.6904144287109375, 3.689727783203125, 3.7015380859375, 3.7030029296875, 3.698883056640625, 3.70721435546875, 3.71697998046875, 3.722137451171875, 3.7188568115234375, 3.7277984619140625, 3.7376708984375, 3.735809326171875, 3.7336273193359375, 3.741546630859375, 3.700469970703125, nan, nan, nan, nan]","[3.3754730224609375, 3.3787689208984375, 3.3736724853515625, 3.360198974609375, 3.35675048828125, 3.3582000732421875, 3.352294921875, 3.3495330810546875, 3.3538360595703125, 3.353485107421875, 3.34906005859375, 3.3515472412109375, 3.35284423828125, 3.348724365234375, 3.3484039306640625, 3.35528564453125, 3.352813720703125, 3.3525543212890625, 3.359619140625, 3.359283447265625, 3.35943603515625, 3.362518310546875, 3.3703765869140625, 3.3701934814453125, 3.3722076416015625, 3.323089599609375, nan, nan, nan, nan]","[1, 1, 1, 1, 1, 1, 1, 1, 1, 1, 1, 1, 1, 1, 1, 1, 1, 1, 1, 1, 1, 1, 1, 1, 1, 1, 0, 0, 0, 0]","[1, 1, 1, 1, 1, 1, 1, 1, 1, 1, 1, 1, 1, 1, 1, 1, 1, 1, 1, 1, 1, 1, 1, 1, 1, 1, 0, 0, 0, 0]",nan,nan,0.8666666666666667,0.8666666666666667,56.46317960000033,None,None,56.46317960000033,None,,,rn,001,male,2022_Jul_21_1243,ErrorStudy_v1,2021.2.3,59.923298178089695,
Letters_1st_Run.xlsx,1,1,0,Eye-tracking is a sensor technolo*zy that can detec*k a person’s presen*ve and follow what they are lookin*b at in real-ti*ne.,0,0,0,0,,,,,,,,,0,0,0,0,14,0,14,0,,,,,,,,,,,,,-992.5,Eye-tracking is,s,,sentence_trial,"[3.5394439697265625, 3.6880035400390625, 3.7953643798828125, 3.7481536865234375, 3.7393951416015625, 3.7392425537109375, 3.744476318359375, 3.74853515625, 3.739593505859375, 3.743560791015625, 3.7477569580078125, 3.7386932373046875, 3.73260498046875, 3.7333984375, 3.7325592041015625, 3.7378997802734375, 3.7431182861328125, 3.7459259033203125, 3.7440948486328125, 3.740814208984375, 3.804595947265625, nan, nan, nan, nan, nan, nan, nan, 3.4897613525390625, 3.4454498291015625]","[3.2494964599609375, 3.3275604248046875, 3.369964599609375, 3.386749267578125, 3.380645751953125, 3.38409423828125, 3.389739990234375, 3.387664794921875, 3.3857421875, 3.3836822509765625, 3.3792877197265625, 3.3748931884765625, 3.3734588623046875, 3.3829803466796875, 3.3889923095703125, 3.3772125244140625, 3.37493896484375, 3.3763885498046875, 3.3771820068359375, 3.3738250732421875, 3.4460601806640625, nan, nan, nan, nan, nan, nan, nan, 3.1320648193359375, 3.2314300537109375]","[1, 1, 1, 1, 1, 1, 1, 1, 1, 1, 1, 1, 1, 1, 1, 1, 1, 1, 1, 1, 1, 0, 0, 0, 0, 0, 0, 0, 1, 1]","[1, 1, 1, 1, 1, 1, 1, 1, 1, 1, 1, 1, 1, 1, 1, 1, 1, 1, 1, 1, 1, 0, 0, 0, 0, 0, 0, 0, 1, 1]",nan,nan,0.7666666666666667,0.7666666666666667,56.96356800000012,None,None,56.96356800000012,None,,,rn,001,male,2022_Jul_21_1243,ErrorStudy_v1,2021.2.3,59.923298178089695,
Letters_1st_Run.xlsx,1,1,0,Eye-tracking is a sensor technolo*zy that can detec*k a person’s presen*ve and follow what they are lookin*b at in real-ti*ne.,0,0,0,0,,,,,,,,,0,0,0,0,15,0,15,0,,,,,,,,,,,,,-992.0,Eye-tracking is , ,,sentence_trial,"[3.516448974609375, 3.644287109375, 3.63494873046875, 3.62255859375, 3.610321044921875, 3.609771728515625, 3.6082916259765625, 3.6051025390625, 3.6045989990234375, 3.6102142333984375, 3.617584228515625, 3.6162872314453125, 3.62078857421875, 3.6350860595703125, 3.63934326171875, 3.63482666015625, 3.6417388916015625, 3.64898681640625, 3.649658203125, 3.64349365234375, 3.6383514404296875, 3.6465911865234375, 3.6424407958984375, 3.63055419921875, 3.621490478515625, 3.6131439208984375, 3.6037750244140625, 3.6039581298828125, 3.5948333740234375, 3.5787353515625]","[3.3011016845703125, 3.301361083984375, 3.2821502685546875, 3.27679443359375, 3.2732391357421875, 3.271331787109375, 3.2654266357421875, 3.263641357421875, 3.2662811279296875, 3.260040283203125, 3.2553253173828125, 3.2581024169921875, 3.270263671875, 3.2796630859375, 3.2836151123046875, 3.2838592529296875, 3.2908477783203125, 3.2982635498046875, 3.2974090576171875, 3.2923583984375, 3.2963409423828125, 3.288787841796875, 3.2816162109375, 3.2841033935546875, 3.2710113525390625, 3.2656707763671875, 3.260406494140625, 3.2469940185546875, 3.2357330322265625, 3.232452392578125]","[1, 1, 1, 1, 1, 1, 1, 1, 1, 1, 1, 1, 1, 1, 1, 1, 1, 1, 1, 1, 1, 1, 1, 1, 1, 1, 1, 1, 1, 1]","[1, 1, 1, 1, 1, 1, 1, 1, 1, 1, 1, 1, 1, 1, 1, 1, 1, 1, 1, 1, 1, 1, 1, 1, 1, 1, 1, 1, 1, 1]",3.6196070353190106,3.2744730631510417,1.0,1.0,57.46411950000038,None,None,57.46411950000038,None,,,rn,001,male,2022_Jul_21_1243,ErrorStudy_v1,2021.2.3,59.923298178089695,
Letters_1st_Run.xlsx,1,1,0,Eye-tracking is a sensor technolo*zy that can detec*k a person’s presen*ve and follow what they are lookin*b at in real-ti*ne.,0,0,0,0,,,,,,,,,0,0,0,0,16,0,16,0,,,,,,,,,,,,,-991.5,Eye-tracking is a,a,,sentence_trial,"[3.5727386474609375, 3.567657470703125, 3.5596160888671875, 3.5556793212890625, 3.5494537353515625, 3.5515899658203125, 3.5444183349609375, 3.5338287353515625, 3.5296783447265625, 3.5274658203125, 3.5267333984375, 3.5186309814453125, 3.5165863037109375, 3.519256591796875, 3.5154876708984375, 3.513031005859375, 3.512451171875, 3.5104217529296875, 3.5068359375, 3.5052947998046875, 3.5072479248046875, 3.5087738037109375, 3.5088043212890625, 3.509979248046875, 3.5133209228515625, 3.5158538818359375, 3.5173187255859375, 3.52142333984375, 3.5188446044921875, 3.515228271484375]","[3.2294921875, 3.22607421875, 3.2170562744140625, 3.2115936279296875, 3.2060394287109375, 3.2019805908203125, 3.19476318359375, 3.1831512451171875, 3.179718017578125, 3.1887664794921875, 3.18621826171875, 3.18560791015625, 3.186737060546875, 3.1788482666015625, 3.1747589111328125, 3.174041748046875, 3.174591064453125, 3.176971435546875, 3.169952392578125, 3.160552978515625, 3.16351318359375, 3.164276123046875, 3.1615142822265625, 3.173004150390625, 3.1723175048828125, 3.1690521240234375, 3.17425537109375, 3.173736572265625, 3.172698974609375, 3.1741790771484375]","[1, 1, 1, 1, 1, 1, 1, 1, 1, 1, 1, 1, 1, 1, 1, 1, 1, 1, 1, 1, 1, 1, 1, 1, 1, 1, 1, 1, 1, 1]","[1, 1, 1, 1, 1, 1, 1, 1, 1, 1, 1, 1, 1, 1, 1, 1, 1, 1, 1, 1, 1, 1, 1, 1, 1, 1, 1, 1, 1, 1]",3.5257883707682294,3.183515421549479,1.0,1.0,57.96463719999974,None,None,57.96463719999974,None,,,rn,001,male,2022_Jul_21_1243,ErrorStudy_v1,2021.2.3,59.923298178089695,
Letters_1st_Run.xlsx,1,1,0,Eye-tracking is a sensor technolo*zy that can detec*k a person’s presen*ve and follow what they are lookin*b at in real-ti*ne.,0,0,0,0,,,,,,,,,0,0,0,0,17,0,17,0,,,,,,,,,,,,,-991.0,Eye-tracking is a , ,,sentence_trial,"[3.5120391845703125, 3.5164947509765625, 3.5210723876953125, 3.522918701171875, 3.5226593017578125, 3.525665283203125, 3.530914306640625, 3.5360870361328125, 3.541168212890625, 3.5359954833984375, 3.53436279296875, 3.5310211181640625, 3.528900146484375, 3.5359649658203125, 3.537445068359375, 3.5372314453125, 3.537200927734375, 3.533782958984375, 3.5375213623046875, 3.539215087890625, 3.5401153564453125, 3.5439910888671875, 3.550872802734375, 3.5516815185546875, 3.549835205078125, 3.5573883056640625, 3.55926513671875, 3.5574493408203125, 3.560028076171875, 3.558135986328125]","[3.17449951171875, 3.1793060302734375, 3.1739501953125, 3.163330078125, 3.1668701171875, 3.1661224365234375, 3.1659393310546875, 3.1715087890625, 3.1734466552734375, 3.1796875, 3.1862030029296875, 3.1851806640625, 3.181793212890625, 3.1831512451171875, 3.1840972900390625, 3.1866302490234375, 3.191375732421875, 3.188690185546875, 3.191986083984375, 3.1923675537109375, 3.1892852783203125, 3.190399169921875, 3.1966552734375, 3.1975250244140625, 3.1951141357421875, 3.2012176513671875, 3.196441650390625, 3.1983489990234375, 3.20294189453125, 3.1934967041015625]","[1, 1, 1, 1, 1, 1, 1, 1, 1, 1, 1, 1, 1, 1, 1, 1, 1, 1, 1, 1, 1, 1, 1, 1, 1, 1, 1, 1, 1, 1]","[1, 1, 1, 1, 1, 1, 1, 1, 1, 1, 1, 1, 1, 1, 1, 1, 1, 1, 1, 1, 1, 1, 1, 1, 1, 1, 1, 1, 1, 1]",3.538214111328125,3.1849187215169272,1.0,1.0,58.465222100000574,None,None,58.465222100000574,None,,,rn,001,male,2022_Jul_21_1243,ErrorStudy_v1,2021.2.3,59.923298178089695,
Letters_1st_Run.xlsx,1,1,0,Eye-tracking is a sensor technolo*zy that can detec*k a person’s presen*ve and follow what they are lookin*b at in real-ti*ne.,0,0,0,0,,,,,,,,,0,0,0,0,18,0,18,0,,,,,,,,,,,,,-990.5,Eye-tracking is a s,s,,sentence_trial,"[3.56494140625, 3.5718994140625, 3.569854736328125, 3.5680694580078125, 3.5679168701171875, 3.572784423828125, 3.5788116455078125, 3.582000732421875, 3.5847930908203125, 3.5908050537109375, 3.592620849609375, 3.5882720947265625, 3.5975189208984375, 3.592803955078125, 3.5927886962890625, 3.602447509765625, 3.6064300537109375, 3.613494873046875, 3.6143951416015625, 3.614593505859375, 3.6251678466796875, 3.62139892578125, 3.618865966796875, 3.6325836181640625, 3.6382904052734375, 3.6331024169921875, 3.63214111328125, 3.628326416015625, 3.6226959228515625, 3.628753662109375]","[3.193115234375, 3.19281005859375, 3.1927337646484375, 3.1994476318359375, 3.198211669921875, 3.197235107421875, 3.1972808837890625, 3.1996917724609375, 3.199615478515625, 3.202789306640625, 3.208404541015625, 3.202392578125, 3.2008819580078125, 3.2024383544921875, 3.2006072998046875, 3.2068023681640625, 3.2126007080078125, 3.2234039306640625, 3.232574462890625, 3.2225341796875, 3.2256622314453125, 3.2254486083984375, 3.224822998046875, 3.2323760986328125, 3.235198974609375, 3.240020751953125, 3.2454681396484375, 3.2371978759765625, 3.2318878173828125, 3.2347259521484375]","[1, 1, 1, 1, 1, 1, 1, 1, 1, 1, 1, 1, 1, 1, 1, 1, 1, 1, 1, 1, 1, 1, 1, 1, 1, 1, 1, 1, 1, 1]","[1, 1, 1, 1, 1, 1, 1, 1, 1, 1, 1, 1, 1, 1, 1, 1, 1, 1, 1, 1, 1, 1, 1, 1, 1, 1, 1, 1, 1, 1]",3.6016189575195314,3.2139460245768228,1.0,1.0,58.96584419999999,None,None,58.96584419999999,None,,,rn,001,male,2022_Jul_21_1243,ErrorStudy_v1,2021.2.3,59.923298178089695,
Letters_1st_Run.xlsx,1,1,0,Eye-tracking is a sensor technolo*zy that can detec*k a person’s presen*ve and follow what they are lookin*b at in real-ti*ne.,0,0,0,0,,,,,,,,,0,0,0,0,19,0,19,0,,,,,,,,,,,,,-990.0,Eye-tracking is a se,e,,sentence_trial,"[3.6307830810546875, 3.6260223388671875, 3.62139892578125, 3.6235504150390625, 3.62005615234375, 3.6151885986328125, 3.612762451171875, 3.6088104248046875, 3.606597900390625, 3.6040191650390625, 3.5972900390625, 3.5941619873046875, 3.5927734375, 3.5919189453125, 3.5839080810546875, 3.5724029541015625, 3.569549560546875, 3.569671630859375, 3.5666961669921875, 3.564483642578125, 3.5623779296875, 3.5543365478515625, 3.544769287109375, 3.5447540283203125, 3.5475311279296875, 3.5475006103515625, 3.542633056640625, 3.5418548583984375, 3.5446624755859375, 3.5399932861328125]","[3.237762451171875, 3.2416534423828125, 3.2404937744140625, 3.23486328125, 3.234649658203125, 3.234161376953125, 3.2318115234375, 3.2336883544921875, 3.2355499267578125, 3.2350616455078125, 3.232086181640625, 3.2293853759765625, 3.23162841796875, 3.225738525390625, 3.2139739990234375, 3.2185516357421875, 3.2203826904296875, 3.2151336669921875, 3.2108917236328125, 3.2088775634765625, 3.20550537109375, 3.1988067626953125, 3.1964874267578125, 3.1961212158203125, 3.185821533203125, 3.178466796875, 3.1822052001953125, 3.182525634765625, 3.1813507080078125, 3.1840667724609375]","[1, 1, 1, 1, 1, 1, 1, 1, 1, 1, 1, 1, 1, 1, 1, 1, 1, 1, 1, 1, 1, 1, 1, 1, 1, 1, 1, 1, 1, 1]","[1, 1, 1, 1, 1, 1, 1, 1, 1, 1, 1, 1, 1, 1, 1, 1, 1, 1, 1, 1, 1, 1, 1, 1, 1, 1, 1, 1, 1, 1]",3.581415303548177,3.215256754557292,1.0,1.0,59.4665829000005,None,None,59.4665829000005,None,,,rn,001,male,2022_Jul_21_1243,ErrorStudy_v1,2021.2.3,59.923298178089695,
Letters_1st_Run.xlsx,1,1,0,Eye-tracking is a sensor technolo*zy that can detec*k a person’s presen*ve and follow what they are lookin*b at in real-ti*ne.,0,0,0,0,,,,,,,,,0,0,0,0,20,0,20,0,,,,,,,,,,,,,-989.5,Eye-tracking is a sen,n,,sentence_trial,"[3.5385894775390625, 3.5455322265625, 3.545196533203125, 3.54278564453125, 3.546417236328125, 3.546905517578125, 3.543243408203125, 3.5354766845703125, 3.5366058349609375, 3.5462188720703125, 3.54974365234375, 3.5520477294921875, 3.5594024658203125, 3.560394287109375, 3.563323974609375, 3.56622314453125, 3.566192626953125, 3.56793212890625, 3.570037841796875, 3.56744384765625, 3.56365966796875, 3.512939453125, nan, nan, nan, nan, 3.33306884765625, 3.494049072265625, 3.6053924560546875, 3.56719970703125]","[3.180206298828125, 3.174407958984375, 3.1753997802734375, 3.187347412109375, 3.18560791015625, 3.1760101318359375, 3.1820220947265625, 3.1889190673828125, 3.1942901611328125, 3.2048187255859375, 3.202056884765625, 3.1979522705078125, 3.202880859375, 3.204833984375, 3.2078094482421875, 3.2064971923828125, 3.2051239013671875, 3.2049102783203125, 3.20562744140625, 3.208709716796875, 3.209503173828125, 3.1526641845703125, nan, nan, nan, nan, 2.919525146484375, 3.1024322509765625, 3.2095947265625, 3.211883544921875]","[1, 1, 1, 1, 1, 1, 1, 1, 1, 1, 1, 1, 1, 1, 1, 1, 1, 1, 1, 1, 1, 1, 0, 0, 0, 0, 1, 1, 1, 1]","[1, 1, 1, 1, 1, 1, 1, 1, 1, 1, 1, 1, 1, 1, 1, 1, 1, 1, 1, 1, 1, 1, 0, 0, 0, 0, 1, 1, 1, 1]",nan,nan,0.8666666666666667,0.8666666666666667,59.967125099999976,None,None,59.967125099999976,None,,,rn,001,male,2022_Jul_21_1243,ErrorStudy_v1,2021.2.3,59.923298178089695,
Letters_1st_Run.xlsx,1,1,0,Eye-tracking is a sensor technolo*zy that can detec*k a person’s presen*ve and follow what they are lookin*b at in real-ti*ne.,0,0,0,0,,,,,,,,,0,0,0,0,21,0,21,0,,,,,,,,,,,,,-989.0,Eye-tracking is a sens,s,,sentence_trial,"[3.5586395263671875, 3.551025390625, 3.549957275390625, 3.54931640625, 3.547576904296875, 3.5512237548828125, 3.553253173828125, 3.5499267578125, 3.5476226806640625, 3.550567626953125, 3.54779052734375, 3.546051025390625, 3.542449951171875, 3.5387420654296875, 3.529205322265625, 3.5095977783203125, 3.4915618896484375, 3.4855194091796875, 3.4676971435546875, 3.4410247802734375, 3.4264373779296875, 3.4232025146484375, 3.40643310546875, 3.39739990234375, 3.38623046875, 3.3768768310546875, 3.370574951171875, 3.362823486328125, 3.3544769287109375, 3.3443450927734375]","[3.2060699462890625, 3.206268310546875, 3.2099761962890625, 3.21234130859375, 3.204315185546875, 3.1888275146484375, 3.186767578125, 3.194915771484375, 3.189483642578125, 3.191680908203125, 3.1954345703125, 3.1923980712890625, 3.19158935546875, 3.1916961669921875, 3.1787567138671875, 3.1723785400390625, 3.1706695556640625, 3.148468017578125, 3.12872314453125, 3.122314453125, 3.103515625, 3.0899810791015625, 3.0701141357421875, 3.06732177734375, 3.0642547607421875, 3.0483856201171875, 3.03961181640625, 3.04229736328125, 3.0352783203125, 3.0298919677734375]","[1, 1, 1, 1, 1, 1, 1, 1, 1, 1, 1, 1, 1, 1, 1, 1, 1, 1, 1, 1, 1, 1, 1, 1, 1, 1, 1, 1, 1, 1]","[1, 1, 1, 1, 1, 1, 1, 1, 1, 1, 1, 1, 1, 1, 1, 1, 1, 1, 1, 1, 1, 1, 1, 1, 1, 1, 1, 1, 1, 1]",3.4819183349609375,3.1424575805664063,1.0,1.0,60.46770389999983,None,None,60.46770389999983,None,,,rn,001,male,2022_Jul_21_1243,ErrorStudy_v1,2021.2.3,59.923298178089695,
Letters_1st_Run.xlsx,1,1,0,Eye-tracking is a sensor technolo*zy that can detec*k a person’s presen*ve and follow what they are lookin*b at in real-ti*ne.,0,0,0,0,,,,,,,,,0,0,0,0,22,0,22,0,,,,,,,,,,,,,-988.5,Eye-tracking is a senso,o,,sentence_trial,"[3.334136962890625, 3.3339080810546875, 3.331298828125, 3.3269195556640625, 3.3211822509765625, 3.3106689453125, 3.312957763671875, 3.316253662109375, 3.3106689453125, 3.3146514892578125, 3.32147216796875, 3.322357177734375, 3.3238677978515625, 3.331329345703125, 3.3358001708984375, 3.3389892578125, 3.3470458984375, 3.3519744873046875, 3.357574462890625, 3.363433837890625, 3.3681640625, 3.3692474365234375, 3.375518798828125, 3.3882293701171875, 3.394500732421875, 3.4056243896484375, 3.4118194580078125, 3.4015960693359375, 3.4101104736328125, 3.417083740234375]","[3.0233917236328125, 3.0157012939453125, 3.0102386474609375, 3.0134429931640625, 3.0099945068359375, 3.00811767578125, 3.00384521484375, 3.0123748779296875, 3.01336669921875, 3.0035858154296875, 3.0110015869140625, 3.013916015625, 3.023040771484375, 3.0274810791015625, 3.0310821533203125, 3.026214599609375, 3.0268402099609375, 3.031524658203125, 3.03802490234375, 3.050445556640625, 3.055999755859375, 3.0646209716796875, 3.06866455078125, 3.0714111328125, 3.0764923095703125, 3.0762176513671875, 3.082305908203125, 3.0850982666015625, 3.077484130859375, 3.075103759765625]","[1, 1, 1, 1, 1, 1, 1, 1, 1, 1, 1, 1, 1, 1, 1, 1, 1, 1, 1, 1, 1, 1, 1, 1, 1, 1, 1, 1, 1, 1]","[1, 1, 1, 1, 1, 1, 1, 1, 1, 1, 1, 1, 1, 1, 1, 1, 1, 1, 1, 1, 1, 1, 1, 1, 1, 1, 1, 1, 1, 1]",3.351612854003906,3.037567647298177,1.0,1.0,60.96807940000053,None,None,60.96807940000053,None,,,rn,001,male,2022_Jul_21_1243,ErrorStudy_v1,2021.2.3,59.923298178089695,
Letters_1st_Run.xlsx,1,1,0,Eye-tracking is a sensor technolo*zy that can detec*k a person’s presen*ve and follow what they are lookin*b at in real-ti*ne.,0,0,0,0,,,,,,,,,0,0,0,0,23,0,23,0,,,,,,,,,,,,,-988.0,Eye-tracking is a sensor,r,,sentence_trial,"[3.4213714599609375, 3.42938232421875, 3.42938232421875, 3.4306640625, 3.427337646484375, 3.4285125732421875, 3.432769775390625, 3.4339752197265625, 3.4359130859375, 3.4384918212890625, 3.436187744140625, 3.43487548828125, 3.4324188232421875, 3.426361083984375, 3.4296417236328125, 3.438751220703125, 3.437164306640625, 3.435699462890625, 3.438507080078125, 3.44000244140625, 3.439453125, 3.4321136474609375, 3.432586669921875, 3.43426513671875, 3.4381256103515625, 3.439544677734375, 3.4427642822265625, 3.435577392578125, 3.435546875, 3.445953369140625]","[3.0900726318359375, 3.09912109375, 3.09912109375, 3.1024169921875, 3.0998687744140625, 3.10577392578125, 3.1092071533203125, 3.104339599609375, 3.0971221923828125, 3.09844970703125, 3.1001129150390625, 3.0951385498046875, 3.099334716796875, 3.101318359375, 3.0939788818359375, 3.0945892333984375, 3.099945068359375, 3.0958709716796875, 3.10205078125, 3.09771728515625, 3.08978271484375, 3.10565185546875, 3.1029052734375, 3.1001739501953125, 3.099639892578125, 3.0968780517578125, 3.099578857421875, 3.0976104736328125, 3.0999755859375, 3.10565185546875]","[1, 1, 1, 1, 1, 1, 1, 1, 1, 1, 1, 1, 1, 1, 1, 1, 1, 1, 1, 1, 1, 1, 1, 1, 1, 1, 1, 1, 1, 1]","[1, 1, 1, 1, 1, 1, 1, 1, 1, 1, 1, 1, 1, 1, 1, 1, 1, 1, 1, 1, 1, 1, 1, 1, 1, 1, 1, 1, 1, 1]",3.4344446818033854,3.0994466145833335,1.0,1.0,61.46889699999974,None,None,61.46889699999974,None,,,rn,001,male,2022_Jul_21_1243,ErrorStudy_v1,2021.2.3,59.923298178089695,
Letters_1st_Run.xlsx,1,1,0,Eye-tracking is a sensor technolo*zy that can detec*k a person’s presen*ve and follow what they are lookin*b at in real-ti*ne.,0,0,0,0,,,,,,,,,0,0,0,0,24,0,24,0,,,,,,,,,,,,,-987.5,Eye-tracking is a sensor , ,,sentence_trial,"[3.4488067626953125, 3.4617919921875, 3.4617919921875, 3.4680328369140625, 3.474761962890625, 3.482666015625, 3.4926300048828125, 3.5063934326171875, 3.5063934326171875, 3.5161590576171875, 3.52398681640625, 3.53497314453125, 3.53497314453125, 3.5494232177734375, 3.5494232177734375, 3.56201171875, 3.56201171875, 3.5690765380859375, 3.5690765380859375, 3.571075439453125, 3.571075439453125, 3.578460693359375, 3.578460693359375, 3.579132080078125, 3.579132080078125, 3.5946807861328125, 3.5946807861328125, 3.5928802490234375, 3.5928802490234375, 3.59814453125]","[3.106597900390625, 3.1144866943359375, 3.1144866943359375, 3.1204376220703125, 3.125701904296875, 3.1240386962890625, 3.134735107421875, 3.1472930908203125, 3.1472930908203125, 3.14971923828125, 3.151336669921875, 3.1595611572265625, 3.1595611572265625, 3.173919677734375, 3.173919677734375, 3.16937255859375, 3.16937255859375, 3.182861328125, 3.182861328125, 3.19036865234375, 3.19036865234375, 3.187774658203125, 3.187774658203125, 3.2067108154296875, 3.2067108154296875, 3.2049560546875, 3.2049560546875, 3.2142486572265625, 3.2142486572265625, 3.222991943359375]","[1, 1, 1, 1, 1, 1, 1, 1, 1, 1, 1, 1, 1, 1, 1, 1, 1, 1, 1, 1, 1, 1, 1, 1, 1, 1, 1, 1, 1, 1]","[1, 1, 1, 1, 1, 1, 1, 1, 1, 1, 1, 1, 1, 1, 1, 1, 1, 1, 1, 1, 1, 1, 1, 1, 1, 1, 1, 1, 1, 1]",3.540166219075521,3.167955525716146,1.0,1.0,61.969339400000536,None,None,61.969339400000536,None,,,rn,001,male,2022_Jul_21_1243,ErrorStudy_v1,2021.2.3,59.923298178089695,
Letters_1st_Run.xlsx,1,1,0,Eye-tracking is a sensor technolo*zy that can detec*k a person’s presen*ve and follow what they are lookin*b at in real-ti*ne.,0,0,0,0,,,,,,,,,0,0,0,0,25,0,25,0,,,,,,,,,,,,,-987.0,Eye-tracking is a sensor t,t,,sentence_trial,"[3.59814453125, 3.604278564453125, 3.604278564453125, 3.6001739501953125, 3.6001739501953125, 3.6048126220703125, 3.6048126220703125, 3.6118316650390625, 3.6118316650390625, 3.618377685546875, 3.618377685546875, 3.6200408935546875, 3.6200408935546875, 3.6295013427734375, 3.6295013427734375, 3.6300811767578125, 3.6300811767578125, 3.6297607421875, 3.63555908203125, 3.647064208984375, 3.649932861328125, 3.6519927978515625, 3.6541595458984375, 3.663543701171875, 3.654083251953125, 3.6344146728515625, 3.6455535888671875, 3.654510498046875, 3.6496429443359375, 3.6506500244140625]","[3.222991943359375, 3.2278289794921875, 3.2278289794921875, 3.22210693359375, 3.22210693359375, 3.2309112548828125, 3.2309112548828125, 3.23101806640625, 3.23101806640625, 3.2318878173828125, 3.2318878173828125, 3.2437896728515625, 3.2437896728515625, 3.2461090087890625, 3.2461090087890625, 3.2602996826171875, 3.2602996826171875, 3.2544097900390625, 3.2639312744140625, 3.2675018310546875, 3.273468017578125, 3.277740478515625, 3.2729644775390625, 3.276092529296875, 3.277191162109375, 3.257080078125, 3.260040283203125, 3.2711181640625, 3.2704315185546875, 3.2696075439453125]","[1, 1, 1, 1, 1, 1, 1, 1, 1, 1, 1, 1, 1, 1, 1, 1, 1, 1, 1, 1, 1, 1, 1, 1, 1, 1, 1, 1, 1, 1]","[1, 1, 1, 1, 1, 1, 1, 1, 1, 1, 1, 1, 1, 1, 1, 1, 1, 1, 1, 1, 1, 1, 1, 1, 1, 1, 1, 1, 1, 1]",3.6285736083984377,3.2500823974609374,1.0,1.0,62.4701283000004,None,None,62.4701283000004,None,,,rn,001,male,2022_Jul_21_1243,ErrorStudy_v1,2021.2.3,59.923298178089695,
Letters_1st_Run.xlsx,1,1,0,Eye-tracking is a sensor technolo*zy that can detec*k a person’s presen*ve and follow what they are lookin*b at in real-ti*ne.,0,0,0,0,,,,,,,,,0,0,0,0,26,0,26,0,,,,,,,,,,,,,-986.5,Eye-tracking is a sensor te,e,,sentence_trial,"[3.66058349609375, 3.6616973876953125, 3.65570068359375, 3.64764404296875, 3.6457366943359375, 3.652618408203125, 3.664276123046875, 3.678131103515625, 3.673614501953125, 3.6569366455078125, 3.648193359375, 3.6471405029296875, 3.652557373046875, 3.646820068359375, 3.6374053955078125, 3.6367950439453125, 3.6320343017578125, 3.6249847412109375, 3.62457275390625, 3.6236724853515625, 3.6162261962890625, 3.6042022705078125, 3.5911712646484375, 3.5791778564453125, 3.5742950439453125, 3.567108154296875, 3.55908203125, 3.54998779296875, 3.5502777099609375, 3.5408172607421875]","[3.261993408203125, 3.2633514404296875, 3.2712554931640625, 3.2659759521484375, 3.2592315673828125, 3.2601776123046875, 3.2678680419921875, 3.2839813232421875, 3.278045654296875, 3.267852783203125, 3.26702880859375, 3.26812744140625, 3.2654266357421875, 3.2571868896484375, 3.25250244140625, 3.25164794921875, 3.252655029296875, 3.2510528564453125, 3.256927490234375, 3.25408935546875, 3.2487030029296875, 3.2454681396484375, 3.2400360107421875, 3.229339599609375, 3.221038818359375, 3.21087646484375, 3.203033447265625, 3.1967010498046875, 3.1881866455078125, 3.1815338134765625]","[1, 1, 1, 1, 1, 1, 1, 1, 1, 1, 1, 1, 1, 1, 1, 1, 1, 1, 1, 1, 1, 1, 1, 1, 1, 1, 1, 1, 1, 1]","[1, 1, 1, 1, 1, 1, 1, 1, 1, 1, 1, 1, 1, 1, 1, 1, 1, 1, 1, 1, 1, 1, 1, 1, 1, 1, 1, 1, 1, 1]",3.623448689778646,3.2473765055338544,1.0,1.0,62.970607799999925,None,None,62.970607799999925,None,,,rn,001,male,2022_Jul_21_1243,ErrorStudy_v1,2021.2.3,59.923298178089695,
Letters_1st_Run.xlsx,1,1,0,Eye-tracking is a sensor technolo*zy that can detec*k a person’s presen*ve and follow what they are lookin*b at in real-ti*ne.,0,0,0,0,,,,,,,,,0,0,0,0,27,0,27,0,,,,,,,,,,,,,-986.0,Eye-tracking is a sensor tec,c,,sentence_trial,"[3.5255889892578125, 3.516326904296875, 3.5139007568359375, 3.5102081298828125, 3.4972076416015625, 3.4935302734375, 3.492706298828125, 3.4829254150390625, 3.4865264892578125, 3.487060546875, 3.477020263671875, 3.4680938720703125, 3.4707183837890625, 3.471832275390625, 3.4692840576171875, 3.467681884765625, 3.471099853515625, 3.4799652099609375, 3.4762115478515625, 3.4729156494140625, 3.469573974609375, 3.4697418212890625, 3.4691314697265625, 3.4622344970703125, 3.4581298828125, 3.4542236328125, 3.451202392578125, 3.4479217529296875, 3.4523162841796875, 3.4494781494140625]","[3.174560546875, 3.1632537841796875, 3.1659393310546875, 3.152191162109375, 3.140380859375, 3.1368255615234375, 3.1297454833984375, 3.1248931884765625, 3.131591796875, 3.12579345703125, 3.1194610595703125, 3.1263275146484375, 3.1266632080078125, 3.1186065673828125, 3.113433837890625, 3.116119384765625, 3.1195831298828125, 3.1172027587890625, 3.11773681640625, 3.1110992431640625, 3.110809326171875, 3.11163330078125, 3.1014862060546875, 3.0995025634765625, 3.0992431640625, 3.0984954833984375, 3.094085693359375, 3.0855560302734375, 3.0858917236328125, 3.0892791748046875]","[1, 1, 1, 1, 1, 1, 1, 1, 1, 1, 1, 1, 1, 1, 1, 1, 1, 1, 1, 1, 1, 1, 1, 1, 1, 1, 1, 1, 1, 1]","[1, 1, 1, 1, 1, 1, 1, 1, 1, 1, 1, 1, 1, 1, 1, 1, 1, 1, 1, 1, 1, 1, 1, 1, 1, 1, 1, 1, 1, 1]",3.477158610026042,3.1202463785807293,1.0,1.0,63.471130599999924,None,None,63.471130599999924,None,,,rn,001,male,2022_Jul_21_1243,ErrorStudy_v1,2021.2.3,59.923298178089695,
Letters_1st_Run.xlsx,1,1,0,Eye-tracking is a sensor technolo*zy that can detec*k a person’s presen*ve and follow what they are lookin*b at in real-ti*ne.,0,0,0,0,,,,,,,,,0,0,0,0,28,0,28,0,,,,,,,,,,,,,-985.5,Eye-tracking is a sensor tech,h,,sentence_trial,"[3.4462738037109375, 3.4436492919921875, 3.435394287109375, 3.4373779296875, 3.4436187744140625, 3.4432220458984375, 3.43377685546875, 3.4337615966796875, 3.4419403076171875, 3.435546875, 3.4268951416015625, 3.430877685546875, 3.43560791015625, 3.430633544921875, 3.421600341796875, 3.4233856201171875, 3.4316864013671875, 3.4234466552734375, 3.421875, 3.4197540283203125, 3.4117584228515625, 3.41253662109375, 3.4059295654296875, 3.4078216552734375, 3.420257568359375, 3.4237213134765625, 3.4248809814453125, 3.4284210205078125, 3.42236328125, 3.4090423583984375]","[3.093414306640625, 3.08477783203125, 3.077423095703125, 3.0770263671875, 3.0753173828125, 3.0797576904296875, 3.085723876953125, 3.08428955078125, 3.08929443359375, 3.085906982421875, 3.078033447265625, 3.0828857421875, 3.086090087890625, 3.0805511474609375, 3.078826904296875, 3.082611083984375, 3.0800933837890625, 3.0812225341796875, 3.077392578125, 3.0833282470703125, 3.08966064453125, 3.0777587890625, 3.07830810546875, 3.07891845703125, 3.0740966796875, 3.0736541748046875, 3.08184814453125, 3.0869903564453125, 3.08013916015625, 3.079437255859375]","[1, 1, 1, 1, 1, 1, 1, 1, 1, 1, 1, 1, 1, 1, 1, 1, 1, 1, 1, 1, 1, 1, 1, 1, 1, 1, 1, 1, 1, 1]","[1, 1, 1, 1, 1, 1, 1, 1, 1, 1, 1, 1, 1, 1, 1, 1, 1, 1, 1, 1, 1, 1, 1, 1, 1, 1, 1, 1, 1, 1]",3.427568562825521,3.081492614746094,1.0,1.0,63.97187550000035,None,None,63.97187550000035,None,,,rn,001,male,2022_Jul_21_1243,ErrorStudy_v1,2021.2.3,59.923298178089695,
Letters_1st_Run.xlsx,1,1,0,Eye-tracking is a sensor technolo*zy that can detec*k a person’s presen*ve and follow what they are lookin*b at in real-ti*ne.,0,0,0,0,,,,,,,,,0,0,0,0,29,0,29,0,,,,,,,,,,,,,-985.0,Eye-tracking is a sensor techn,n,,sentence_trial,"[3.4191436767578125, 3.4410247802734375, 3.45050048828125, 3.453582763671875, 3.4601898193359375, 3.4674530029296875, 3.4681549072265625, 3.4759521484375, 3.487274169921875, 3.497711181640625, 3.5106658935546875, 3.538299560546875, 3.5477294921875, 3.5489501953125, 3.5482330322265625, 3.5506439208984375, 3.559844970703125, 3.5631561279296875, 3.55975341796875, 3.562347412109375, 3.5592193603515625, 3.5603485107421875, 3.56787109375, 3.5666961669921875, 3.5672760009765625, 3.5663909912109375, 3.5618438720703125, 3.558349609375, 3.556243896484375, 3.54345703125]","[3.0946044921875, 3.1059112548828125, 3.10980224609375, 3.115264892578125, 3.114898681640625, 3.1197509765625, 3.1257171630859375, 3.1328125, 3.13897705078125, 3.1464996337890625, 3.144256591796875, 3.17218017578125, 3.18902587890625, 3.18951416015625, 3.1887664794921875, 3.1885833740234375, 3.1967620849609375, 3.2030487060546875, 3.201629638671875, 3.20172119140625, 3.2006072998046875, 3.2117919921875, 3.225830078125, 3.221343994140625, 3.2145843505859375, 3.220245361328125, 3.220703125, 3.2106475830078125, 3.19964599609375, 3.1905364990234375]","[1, 1, 1, 1, 1, 1, 1, 1, 1, 1, 1, 1, 1, 1, 1, 1, 1, 1, 1, 1, 1, 1, 1, 1, 1, 1, 1, 1, 1, 1]","[1, 1, 1, 1, 1, 1, 1, 1, 1, 1, 1, 1, 1, 1, 1, 1, 1, 1, 1, 1, 1, 1, 1, 1, 1, 1, 1, 1, 1, 1]",3.5239435831705728,3.1731887817382813,1.0,1.0,64.47239379999974,None,None,64.47239379999974,None,,,rn,001,male,2022_Jul_21_1243,ErrorStudy_v1,2021.2.3,59.923298178089695,
Letters_1st_Run.xlsx,1,1,0,Eye-tracking is a sensor technolo*zy that can detec*k a person’s presen*ve and follow what they are lookin*b at in real-ti*ne.,0,0,0,0,,,,,,,,,0,0,0,0,30,0,30,0,,,,,,,,,,,,,-984.5,Eye-tracking is a sensor techno,o,,sentence_trial,"[3.536895751953125, 3.52215576171875, 3.505218505859375, 3.4976806640625, 3.4899444580078125, 3.4770355224609375, 3.475677490234375, 3.472381591796875, 3.4552154541015625, 3.436370849609375, 3.42864990234375, 3.42498779296875, 3.417724609375, 3.4134368896484375, 3.410675048828125, 3.4115142822265625, 3.4132843017578125, 3.40887451171875, 3.4142303466796875, 3.4185791015625, 3.4108123779296875, 3.412750244140625, 3.423004150390625, 3.42340087890625, 3.4265594482421875, 3.4315338134765625, 3.4351654052734375, 3.4379425048828125, 3.43829345703125, 3.4410247802734375]","[3.1864471435546875, 3.1768341064453125, 3.1714324951171875, 3.16461181640625, 3.152801513671875, 3.1439666748046875, 3.1395416259765625, 3.1246795654296875, 3.115814208984375, 3.11529541015625, 3.1115264892578125, 3.0998992919921875, 3.0955657958984375, 3.092254638671875, 3.1000823974609375, 3.099029541015625, 3.0860137939453125, 3.0942840576171875, 3.0995025634765625, 3.094940185546875, 3.0940399169921875, 3.092254638671875, 3.0917205810546875, 3.0951080322265625, 3.105804443359375, 3.105804443359375, 3.103515625, 3.1059722900390625, 3.10845947265625, 3.1123809814453125]","[1, 1, 1, 1, 1, 1, 1, 1, 1, 1, 1, 1, 1, 1, 1, 1, 1, 1, 1, 1, 1, 1, 1, 1, 1, 1, 1, 1, 1, 1]","[1, 1, 1, 1, 1, 1, 1, 1, 1, 1, 1, 1, 1, 1, 1, 1, 1, 1, 1, 1, 1, 1, 1, 1, 1, 1, 1, 1, 1, 1]",3.443700663248698,3.115986124674479,1.0,1.0,64.97275290000016,None,None,64.97275290000016,None,,,rn,001,male,2022_Jul_21_1243,ErrorStudy_v1,2021.2.3,59.923298178089695,
Letters_1st_Run.xlsx,1,1,0,Eye-tracking is a sensor technolo*zy that can detec*k a person’s presen*ve and follow what they are lookin*b at in real-ti*ne.,0,0,0,0,,,,,,,,,0,0,0,0,31,0,31,0,,,,,,,,,,,,,-984.0,Eye-tracking is a sensor technol,l,,sentence_trial,"[3.445281982421875, 3.45489501953125, 3.453765869140625, 3.4515533447265625, 3.4512481689453125, 3.455718994140625, 3.46063232421875, 3.457183837890625, 3.460174560546875, 3.469696044921875, 3.47039794921875, 3.4736480712890625, 3.475372314453125, 3.4734649658203125, 3.476531982421875, 3.4705963134765625, 3.46966552734375, 3.47607421875, 3.473541259765625, 3.472747802734375, 3.46685791015625, 3.4539031982421875, 3.4507904052734375, 3.45404052734375, 3.4549407958984375, 3.451690673828125, 3.446563720703125, 3.4427032470703125, 3.443695068359375]","[3.108489990234375, 3.1157989501953125, 3.11541748046875, 3.1184844970703125, 3.119110107421875, 3.1166839599609375, 3.1217193603515625, 3.129669189453125, 3.1255340576171875, 3.120330810546875, 3.1229248046875, 3.1252288818359375, 3.124847412109375, 3.1133270263671875, 3.1105194091796875, 3.11773681640625, 3.1133270263671875, 3.1128387451171875, 3.1196136474609375, 3.127685546875, 3.124267578125, 3.114410400390625, 3.1148223876953125, 3.1217193603515625, 3.115753173828125, 3.11077880859375, 3.1145172119140625, 3.1193084716796875, 3.119720458984375]","[1, 1, 1, 1, 1, 1, 1, 1, 1, 1, 1, 1, 1, 1, 1, 1, 1, 1, 1, 1, 1, 1, 1, 1, 1, 1, 1, 1, 1]","[1, 1, 1, 1, 1, 1, 1, 1, 1, 1, 1, 1, 1, 1, 1, 1, 1, 1, 1, 1, 1, 1, 1, 1, 1, 1, 1, 1, 1]",3.4605991758149246,3.118433985216864,1.0,1.0,65.48892239999986,None,None,65.48892239999986,None,,,rn,001,male,2022_Jul_21_1243,ErrorStudy_v1,2021.2.3,59.923298178089695,
Letters_1st_Run.xlsx,1,1,0,Eye-tracking is a sensor technolo*zy that can detec*k a person’s presen*ve and follow what they are lookin*b at in real-ti*ne.,0,0,0,0,,,,,,,,,0,0,0,0,32,0,32,0,,,,,,,,,,,,,-983.5,Eye-tracking is a sensor technolo,o,,sentence_trial,"[3.442352294921875, 3.44439697265625, 3.4550018310546875, 3.4576568603515625, 3.4554443359375, 3.4572601318359375, 3.4578704833984375, 3.45684814453125, 3.463104248046875, 3.4658355712890625, 3.46502685546875, 3.4693450927734375, 3.4682159423828125, 3.47528076171875, 3.481597900390625, 3.485992431640625, 3.5014190673828125, 3.5065765380859375, 3.502288818359375, 3.510162353515625, 3.518157958984375, 3.5279541015625, 3.535980224609375, 3.544281005859375, 3.5518341064453125, 3.559600830078125, 3.5631866455078125, 3.5694732666015625, 3.576812744140625, 3.583404541015625]","[3.1182403564453125, 3.12060546875, 3.1236114501953125, 3.1241302490234375, 3.1255340576171875, 3.1294403076171875, 3.131195068359375, 3.1327667236328125, 3.131591796875, 3.1277923583984375, 3.12847900390625, 3.1382293701171875, 3.1376953125, 3.13916015625, 3.142059326171875, 3.151397705078125, 3.150238037109375, 3.1536865234375, 3.1623382568359375, 3.170166015625, 3.1814117431640625, 3.1846466064453125, 3.1899261474609375, 3.196014404296875, 3.19415283203125, 3.207305908203125, 3.207305908203125, 3.2053680419921875, 3.2159576416015625, 3.233612060546875]","[1, 1, 1, 1, 1, 1, 1, 1, 1, 1, 1, 1, 1, 1, 1, 1, 1, 1, 1, 1, 1, 1, 1, 1, 1, 1, 1, 1, 1, 1]","[1, 1, 1, 1, 1, 1, 1, 1, 1, 1, 1, 1, 1, 1, 1, 1, 1, 1, 1, 1, 1, 1, 1, 1, 1, 1, 1, 1, 1, 1]",3.4984120686848956,3.1584686279296874,1.0,1.0,65.97397120000005,None,None,65.97397120000005,None,,,rn,001,male,2022_Jul_21_1243,ErrorStudy_v1,2021.2.3,59.923298178089695,
Letters_1st_Run.xlsx,1,1,0,Eye-tracking is a sensor technolo*zy that can detec*k a person’s presen*ve and follow what they are lookin*b at in real-ti*ne.,0,0,0,0,,,,,,,,,0,0,0,0,33,0,33,0,,,,,,,,,,,,,0,Eye-tracking is a sensor technoloz,z,error,sentence_trial,"[3.5948638916015625, 3.599029541015625, 3.6031494140625, 3.6101531982421875, 3.6165313720703125, 3.6129302978515625, 3.616455078125, 3.630401611328125, 3.634185791015625, 3.630615234375, 3.6330413818359375, 3.6401214599609375, 3.64227294921875, 3.64166259765625, 3.6406097412109375, 3.643157958984375, 3.6473388671875, 3.641204833984375, 3.6336669921875, 3.6328125, 3.632720947265625, 3.633056640625, 3.635284423828125, 3.62811279296875, 3.6249847412109375, 3.6301727294921875, 3.6258544921875, 3.6232147216796875, 3.61676025390625]","[3.242462158203125, 3.247039794921875, 3.2451019287109375, 3.2469482421875, 3.2592010498046875, 3.2586212158203125, 3.2599334716796875, 3.2677154541015625, 3.2737884521484375, 3.27142333984375, 3.269775390625, 3.2733001708984375, 3.28094482421875, 3.286651611328125, 3.293975830078125, 3.29205322265625, 3.282012939453125, 3.2845458984375, 3.2898712158203125, 3.285858154296875, 3.287689208984375, 3.2890167236328125, 3.2839813232421875, 3.2830657958984375, 3.282470703125, 3.2788848876953125, 3.2795257568359375, 3.2772674560546875, 3.2704620361328125]","[1, 1, 1, 1, 1, 1, 1, 1, 1, 1, 1, 1, 1, 1, 1, 1, 1, 1, 1, 1, 1, 1, 1, 1, 1, 1, 1, 1, 1]","[1, 1, 1, 1, 1, 1, 1, 1, 1, 1, 1, 1, 1, 1, 1, 1, 1, 1, 1, 1, 1, 1, 1, 1, 1, 1, 1, 1, 1]",3.627391946726832,3.2739168364426185,1.0,1.0,66.4899946000005,None,None,66.4899946000005,None,,,rn,001,male,2022_Jul_21_1243,ErrorStudy_v1,2021.2.3,59.923298178089695,
Letters_1st_Run.xlsx,1,1,0,Eye-tracking is a sensor technolo*zy that can detec*k a person’s presen*ve and follow what they are lookin*b at in real-ti*ne.,0,0,0,0,,,,,,,,,0,0,0,0,34,0,34,0,,,,,,,,,,,,,0.5,Eye-tracking is a sensor technolozy,y,,sentence_trial,"[3.6078033447265625, 3.60540771484375, 3.60137939453125, 3.600067138671875, 3.603912353515625, 3.6087646484375, 3.6093597412109375, 3.6132354736328125, 3.6173248291015625, 3.62115478515625, 3.632568359375, 3.6373443603515625, 3.6326904296875, 3.6398773193359375, 3.6465911865234375, 3.650543212890625, 3.6546173095703125, 3.6579132080078125, 3.6626434326171875, 3.6636199951171875, 3.671478271484375, 3.6761016845703125, 3.6764068603515625, 3.680755615234375, 3.6783294677734375, 3.6805877685546875, 3.6901702880859375, 3.6973114013671875, 3.70062255859375, 3.6984100341796875]","[3.265655517578125, 3.2623748779296875, 3.258636474609375, 3.263702392578125, 3.2708892822265625, 3.2672576904296875, 3.267120361328125, 3.276031494140625, 3.2805023193359375, 3.28448486328125, 3.285675048828125, 3.2940826416015625, 3.29534912109375, 3.297271728515625, 3.3043670654296875, 3.3078765869140625, 3.308990478515625, 3.317901611328125, 3.3207855224609375, 3.3239288330078125, 3.33331298828125, 3.339447021484375, 3.342315673828125, 3.3441009521484375, 3.3419342041015625, 3.3458251953125, 3.35235595703125, 3.3536376953125, 3.356292724609375, 3.3632354736328125]","[1, 1, 1, 1, 1, 1, 1, 1, 1, 1, 1, 1, 1, 1, 1, 1, 1, 1, 1, 1, 1, 1, 1, 1, 1, 1, 1, 1, 1, 1]","[1, 1, 1, 1, 1, 1, 1, 1, 1, 1, 1, 1, 1, 1, 1, 1, 1, 1, 1, 1, 1, 1, 1, 1, 1, 1, 1, 1, 1, 1]",3.647233072916667,3.307511393229167,1.0,1.0,66.9752238000001,None,space,66.9752238000001,None,0.942909200000031,0.442909200000031,rn,001,male,2022_Jul_21_1243,ErrorStudy_v1,2021.2.3,59.923298178089695,
Letters_1st_Run.xlsx,1,1,0,Eye-tracking is a sensor technolo*zy that can detec*k a person’s presen*ve and follow what they are lookin*b at in real-ti*ne.,0,0,0,0,,,,,,,,,0,0,0,0,35,0,35,0,,,,,,,,,,,,,1.0,Eye-tracking is a sensor technolozy , ,,sentence_trial,"[3.6994476318359375, 3.70404052734375, 3.7024688720703125, 3.70709228515625, 3.7137451171875, 3.717498779296875, 3.7164459228515625, 3.721771240234375, 3.7273712158203125, 3.7329864501953125, 3.738616943359375, 3.74139404296875, 3.7460479736328125, 3.7523193359375, 3.7595977783203125, 3.764251708984375, 3.7677001953125, 3.7726593017578125, 3.779296875, 3.7872467041015625, 3.7884979248046875, 3.7930755615234375, 3.801513671875, 3.8039093017578125, 3.8112335205078125, 3.8136749267578125, 3.802520751953125, 3.8048248291015625, 3.8096923828125, 3.8093109130859375]","[3.3643341064453125, 3.3674468994140625, 3.363250732421875, 3.361968994140625, 3.3650970458984375, 3.3777618408203125, 3.3824005126953125, 3.380828857421875, 3.3785858154296875, 3.3789215087890625, 3.3855438232421875, 3.3909149169921875, 3.39459228515625, 3.3983917236328125, 3.396484375, 3.399017333984375, 3.3999176025390625, 3.4071044921875, 3.40869140625, 3.406219482421875, 3.417388916015625, 3.422576904296875, 3.4221954345703125, 3.4298248291015625, 3.428314208984375, 3.4288787841796875, 3.43701171875, 3.4397125244140625, 3.437713623046875, 3.4356842041015625]","[1, 1, 1, 1, 1, 1, 1, 1, 1, 1, 1, 1, 1, 1, 1, 1, 1, 1, 1, 1, 1, 1, 1, 1, 1, 1, 1, 1, 1, 1]","[1, 1, 1, 1, 1, 1, 1, 1, 1, 1, 1, 1, 1, 1, 1, 1, 1, 1, 1, 1, 1, 1, 1, 1, 1, 1, 1, 1, 1, 1]",3.7596750895182294,3.400225830078125,1.0,1.0,67.47577139999976,None,None,67.47577139999976,None,,,rn,001,male,2022_Jul_21_1243,ErrorStudy_v1,2021.2.3,59.923298178089695,
Letters_1st_Run.xlsx,1,1,0,Eye-tracking is a sensor technolo*zy that can detec*k a person’s presen*ve and follow what they are lookin*b at in real-ti*ne.,0,0,0,0,,,,,,,,,0,0,0,0,36,0,36,0,,,,,,,,,,,,,1.5,Eye-tracking is a sensor technolozy t,t,,sentence_trial,"[3.8089752197265625, 3.810272216796875, 3.8158111572265625, 3.8146209716796875, 3.8044891357421875, 3.801971435546875, 3.80474853515625, 3.8040618896484375, 3.8007354736328125, 3.7949066162109375, 3.791473388671875, 3.7919921875, 3.7937774658203125, 3.7894134521484375, 3.7868194580078125, 3.782012939453125, 3.775115966796875, 3.775726318359375, 3.7705078125, 3.7659912109375, 3.766357421875, 3.763824462890625, 3.76904296875, 3.7680816650390625, 3.75897216796875, 3.7586822509765625, 3.7637786865234375, 3.7609100341796875, 3.7559356689453125]","[3.4359130859375, 3.4322967529296875, 3.4230499267578125, 3.4207763671875, 3.42584228515625, 3.4304351806640625, 3.4300537109375, 3.422149658203125, 3.42095947265625, 3.416778564453125, 3.4053955078125, 3.3984222412109375, 3.395843505859375, 3.3887481689453125, 3.389892578125, 3.390533447265625, 3.3864288330078125, 3.37896728515625, 3.3736419677734375, 3.3716583251953125, 3.3783721923828125, 3.3760223388671875, 3.36590576171875, 3.366119384765625, 3.3650054931640625, 3.3598785400390625, 3.360382080078125, 3.3647308349609375, 3.369232177734375]","[1, 1, 1, 1, 1, 1, 1, 1, 1, 1, 1, 1, 1, 1, 1, 1, 1, 1, 1, 1, 1, 1, 1, 1, 1, 1, 1, 1, 1]","[1, 1, 1, 1, 1, 1, 1, 1, 1, 1, 1, 1, 1, 1, 1, 1, 1, 1, 1, 1, 1, 1, 1, 1, 1, 1, 1, 1, 1]",3.784448557886584,3.3946012299636315,1.0,1.0,67.9762337000002,None,None,67.9762337000002,None,,,rn,001,male,2022_Jul_21_1243,ErrorStudy_v1,2021.2.3,59.923298178089695,
Letters_1st_Run.xlsx,1,1,0,Eye-tracking is a sensor technolo*zy that can detec*k a person’s presen*ve and follow what they are lookin*b at in real-ti*ne.,0,0,0,0,,,,,,,,,0,0,0,0,37,0,37,0,,,,,,,,,,,,,2.0,Eye-tracking is a sensor technolozy th,h,,sentence_trial,"[3.761199951171875, 3.76348876953125, 3.7615203857421875, 3.7620391845703125, 3.7653961181640625, 3.772125244140625, 3.777435302734375, 3.7742156982421875, 3.77532958984375, 3.7838592529296875, 3.7886810302734375, 3.7861328125, 3.7852325439453125, 3.794708251953125, 3.79876708984375, 3.7962188720703125, 3.798858642578125, 3.8024139404296875, 3.802154541015625, 3.798492431640625, 3.79144287109375, 3.783538818359375, 3.7800750732421875, 3.7743682861328125, 3.774383544921875, 3.76611328125, 3.7531890869140625, 3.7533416748046875, 3.74981689453125, 3.7457122802734375]","[3.3639984130859375, 3.3677825927734375, 3.37506103515625, 3.3726959228515625, 3.37835693359375, 3.3759918212890625, 3.37933349609375, 3.38677978515625, 3.38409423828125, 3.3923187255859375, 3.4005279541015625, 3.399139404296875, 3.4043426513671875, 3.40789794921875, 3.4060516357421875, 3.40435791015625, 3.4128265380859375, 3.4191436767578125, 3.4155120849609375, 3.4094085693359375, 3.4165802001953125, 3.4219207763671875, 3.417205810546875, 3.4172515869140625, 3.4129486083984375, 3.4079437255859375, 3.399749755859375, 3.391021728515625, 3.3855743408203125, 3.3800811767578125]","[1, 1, 1, 1, 1, 1, 1, 1, 1, 1, 1, 1, 1, 1, 1, 1, 1, 1, 1, 1, 1, 1, 1, 1, 1, 1, 1, 1, 1, 1]","[1, 1, 1, 1, 1, 1, 1, 1, 1, 1, 1, 1, 1, 1, 1, 1, 1, 1, 1, 1, 1, 1, 1, 1, 1, 1, 1, 1, 1, 1]",3.7773417154947917,3.3968633015950522,1.0,1.0,68.46019070000057,None,None,68.46019070000057,None,,,rn,001,male,2022_Jul_21_1243,ErrorStudy_v1,2021.2.3,59.923298178089695,
Letters_1st_Run.xlsx,1,1,0,Eye-tracking is a sensor technolo*zy that can detec*k a person’s presen*ve and follow what they are lookin*b at in real-ti*ne.,0,0,0,0,,,,,,,,,0,0,0,0,38,0,38,0,,,,,,,,,,,,,2.5,Eye-tracking is a sensor technolozy tha,a,,sentence_trial,"[3.7301025390625, 3.7215118408203125, 3.71844482421875, 3.7175750732421875, 3.7159576416015625, 3.708740234375, 3.7064056396484375, 3.704986572265625, 3.700469970703125, 3.689697265625, 3.684783935546875, 3.6851654052734375, 3.681732177734375, 3.6883697509765625, 3.688018798828125, 3.6816253662109375, 3.6754302978515625, 3.669403076171875, 3.6704864501953125, 3.666717529296875, 3.6647186279296875, 3.66156005859375, 3.6578826904296875, 3.6662139892578125, 3.670013427734375, 3.6715087890625, 3.6764984130859375, 3.6735382080078125, 3.6654815673828125, 3.66058349609375]","[3.366058349609375, 3.3677978515625, 3.3729095458984375, 3.368072509765625, 3.36224365234375, 3.360504150390625, 3.3559722900390625, 3.359405517578125, 3.3563995361328125, 3.3519134521484375, 3.3436431884765625, 3.3411865234375, 3.3406219482421875, 3.3321075439453125, 3.3281402587890625, 3.32183837890625, 3.3237457275390625, 3.3282623291015625, 3.328857421875, 3.3332977294921875, 3.3320465087890625, 3.323944091796875, 3.31866455078125, 3.3251190185546875, 3.3291778564453125, 3.326629638671875, 3.3373870849609375, 3.3426513671875, 3.3294830322265625, 3.3267974853515625]","[1, 1, 1, 1, 1, 1, 1, 1, 1, 1, 1, 1, 1, 1, 1, 1, 1, 1, 1, 1, 1, 1, 1, 1, 1, 1, 1, 1, 1, 1]","[1, 1, 1, 1, 1, 1, 1, 1, 1, 1, 1, 1, 1, 1, 1, 1, 1, 1, 1, 1, 1, 1, 1, 1, 1, 1, 1, 1, 1, 1]",3.6857874552408854,3.341162618001302,1.0,1.0,68.9606687000005,None,None,68.9606687000005,None,,,rn,001,male,2022_Jul_21_1243,ErrorStudy_v1,2021.2.3,59.923298178089695,
Letters_1st_Run.xlsx,1,1,0,Eye-tracking is a sensor technolo*zy that can detec*k a person’s presen*ve and follow what they are lookin*b at in real-ti*ne.,0,0,0,0,,,,,,,,,0,0,0,0,39,0,39,0,,,,,,,,,,,,,3.0,Eye-tracking is a sensor technolozy that,t,,sentence_trial,"[3.657623291015625, 3.661895751953125, 3.6654510498046875, 3.6622772216796875, 3.65899658203125, 3.6661224365234375, 3.666412353515625, 3.6687774658203125, 3.6713104248046875, 3.665252685546875, 3.6705322265625, 3.676422119140625, 3.6823883056640625, 3.6796112060546875, 3.672760009765625, 3.6714324951171875, 3.6711578369140625, 3.6766204833984375, 3.675018310546875, 3.66351318359375, 3.03790283203125, 2.4962158203125, nan, nan, nan, nan, 3.551025390625, 3.5988616943359375, 3.608154296875, 3.6085052490234375]","[3.3256072998046875, 3.321075439453125, 3.321197509765625, 3.3182220458984375, 3.31500244140625, 3.31646728515625, 3.3167724609375, 3.3165130615234375, 3.31756591796875, 3.31939697265625, 3.321075439453125, 3.3257904052734375, 3.3297576904296875, 3.3278656005859375, 3.325042724609375, 3.32183837890625, 3.323516845703125, 3.3307342529296875, 3.3311004638671875, 3.3255157470703125, 3.3921051025390625, nan, nan, nan, nan, nan, 3.190582275390625, 3.2383270263671875, 3.2727508544921875, 3.28289794921875]","[1, 1, 1, 1, 1, 1, 1, 1, 1, 1, 1, 1, 1, 1, 1, 1, 1, 1, 1, 1, 1, 1, 0, 0, 0, 0, 1, 1, 1, 1]","[1, 1, 1, 1, 1, 1, 1, 1, 1, 1, 1, 1, 1, 1, 1, 1, 1, 1, 1, 1, 1, 0, 0, 0, 0, 0, 1, 1, 1, 1]",nan,nan,0.8666666666666667,0.8333333333333334,69.46126319999985,None,None,69.46126319999985,None,,,rn,001,male,2022_Jul_21_1243,ErrorStudy_v1,2021.2.3,59.923298178089695,
Letters_1st_Run.xlsx,1,1,0,Eye-tracking is a sensor technolo*zy that can detec*k a person’s presen*ve and follow what they are lookin*b at in real-ti*ne.,0,0,0,0,,,,,,,,,0,0,0,0,40,0,40,0,,,,,,,,,,,,,3.5,Eye-tracking is a sensor technolozy that , ,,sentence_trial,"[3.6055908203125, 3.607391357421875, 3.6012420654296875, 3.5960540771484375, 3.5923004150390625, 3.593292236328125, 3.5859832763671875, 3.5757598876953125, 3.5751190185546875, 3.578887939453125, 3.576873779296875, 3.5718841552734375, 3.5677642822265625, 3.561553955078125, 3.550262451171875, 3.5354766845703125, 3.529449462890625, 3.5266571044921875, 3.5068206787109375, 3.497100830078125, 3.4903564453125, 3.4822998046875, 3.4653472900390625, 3.457733154296875, 3.4487762451171875, 3.4394989013671875, 3.42962646484375, 3.4193115234375, 3.4084320068359375, 3.3973236083984375]","[3.2751007080078125, 3.2755126953125, 3.2680206298828125, 3.2559661865234375, 3.2502593994140625, 3.252166748046875, 3.2445068359375, 3.239227294921875, 3.24029541015625, 3.2393341064453125, 3.2348480224609375, 3.2352294921875, 3.234100341796875, 3.2338104248046875, 3.2186737060546875, 3.2103729248046875, 3.195037841796875, 3.1864776611328125, 3.1789093017578125, 3.1605987548828125, 3.14349365234375, 3.1412811279296875, 3.1280517578125, 3.11395263671875, 3.1066131591796875, 3.094970703125, 3.0860443115234375, 3.080352783203125, 3.06976318359375, 3.0640106201171875]","[1, 1, 1, 1, 1, 1, 1, 1, 1, 1, 1, 1, 1, 1, 1, 1, 1, 1, 1, 1, 1, 1, 1, 1, 1, 1, 1, 1, 1, 1]","[1, 1, 1, 1, 1, 1, 1, 1, 1, 1, 1, 1, 1, 1, 1, 1, 1, 1, 1, 1, 1, 1, 1, 1, 1, 1, 1, 1, 1, 1]",3.5258056640625,3.1885660807291667,1.0,1.0,69.96180139999979,None,None,69.96180139999979,None,,,rn,001,male,2022_Jul_21_1243,ErrorStudy_v1,2021.2.3,59.923298178089695,
Letters_1st_Run.xlsx,1,1,0,Eye-tracking is a sensor technolo*zy that can detec*k a person’s presen*ve and follow what they are lookin*b at in real-ti*ne.,0,0,0,0,,,,,,,,,0,0,0,0,41,0,41,0,,,,,,,,,,,,,4.0,Eye-tracking is a sensor technolozy that c,c,,sentence_trial,"[3.3859405517578125, 3.381622314453125, 3.381622314453125, 3.3676910400390625, 3.3618011474609375, 3.361907958984375, 3.3587646484375, 3.3595733642578125, 3.3590850830078125, 3.3616790771484375, 3.363372802734375, 3.371002197265625, 3.3717498779296875, 3.36016845703125, 3.360504150390625, 3.3678436279296875, 3.374786376953125, 3.37701416015625, 3.384521484375, 3.38824462890625, 3.39715576171875, 3.4094390869140625, 3.4147186279296875, 3.413330078125, 3.413482666015625, 3.422760009765625, 3.429962158203125, 3.434600830078125, 3.4361419677734375, 3.438079833984375]","[3.0568389892578125, 3.0454559326171875, 3.0454559326171875, 3.040191650390625, 3.0361480712890625, 3.0254974365234375, 3.01666259765625, 3.0214080810546875, 3.0259246826171875, 3.0352020263671875, 3.032867431640625, 3.0269927978515625, 3.0346527099609375, 3.032745361328125, 3.0334320068359375, 3.0364837646484375, 3.0323028564453125, 3.0372314453125, 3.0465240478515625, 3.0477752685546875, 3.0525360107421875, 3.058624267578125, 3.0611114501953125, 3.0655975341796875, 3.0709686279296875, 3.069915771484375, 3.078887939453125, 3.080474853515625, 3.0760955810546875, 3.0728607177734375]","[1, 1, 1, 1, 1, 1, 1, 1, 1, 1, 1, 1, 1, 1, 1, 1, 1, 1, 1, 1, 1, 1, 1, 1, 1, 1, 1, 1, 1, 1]","[1, 1, 1, 1, 1, 1, 1, 1, 1, 1, 1, 1, 1, 1, 1, 1, 1, 1, 1, 1, 1, 1, 1, 1, 1, 1, 1, 1, 1, 1]",3.386952209472656,3.0465621948242188,1.0,1.0,70.46250000000055,None,None,70.46250000000055,None,,,rn,001,male,2022_Jul_21_1243,ErrorStudy_v1,2021.2.3,59.923298178089695,
Letters_1st_Run.xlsx,1,1,0,Eye-tracking is a sensor technolo*zy that can detec*k a person’s presen*ve and follow what they are lookin*b at in real-ti*ne.,0,0,0,0,,,,,,,,,0,0,0,0,42,0,42,0,,,,,,,,,,,,,4.5,Eye-tracking is a sensor technolozy that ca,a,,sentence_trial,"[3.4410552978515625, 3.444671630859375, 3.444671630859375, 3.440673828125, 3.4476318359375, 3.446380615234375, 3.4495086669921875, 3.4598846435546875, 3.4598846435546875, 3.469207763671875, 3.469207763671875, 3.477508544921875, 3.477508544921875, 3.49700927734375, 3.49700927734375, 3.48931884765625, 3.48931884765625, 3.49456787109375, 3.49456787109375, 3.5066680908203125, 3.5066680908203125, 3.500152587890625, 3.500152587890625, 3.5128326416015625, 3.5128326416015625, 3.51019287109375, 3.51019287109375, 3.5084686279296875, 3.5084686279296875, 3.5160369873046875]","[3.0728912353515625, 3.0887298583984375, 3.0887298583984375, 3.0830230712890625, 3.0870361328125, 3.09210205078125, 3.1015777587890625, 3.09149169921875, 3.09149169921875, 3.1051177978515625, 3.1051177978515625, 3.0983734130859375, 3.0983734130859375, 3.1149444580078125, 3.1149444580078125, 3.1106719970703125, 3.1106719970703125, 3.1204376220703125, 3.1204376220703125, 3.119720458984375, 3.119720458984375, 3.117828369140625, 3.117828369140625, 3.1222381591796875, 3.1222381591796875, 3.1222991943359375, 3.1222991943359375, 3.114471435546875, 3.114471435546875, 3.1093597412109375]","[1, 1, 1, 1, 1, 1, 1, 1, 1, 1, 1, 1, 1, 1, 1, 1, 1, 1, 1, 1, 1, 1, 1, 1, 1, 1, 1, 1, 1, 1]","[1, 1, 1, 1, 1, 1, 1, 1, 1, 1, 1, 1, 1, 1, 1, 1, 1, 1, 1, 1, 1, 1, 1, 1, 1, 1, 1, 1, 1, 1]",3.4827418009440105,3.1066212972005207,1.0,1.0,70.96298540000043,None,None,70.96298540000043,None,,,rn,001,male,2022_Jul_21_1243,ErrorStudy_v1,2021.2.3,59.923298178089695,
Letters_1st_Run.xlsx,1,1,0,Eye-tracking is a sensor technolo*zy that can detec*k a person’s presen*ve and follow what they are lookin*b at in real-ti*ne.,0,0,0,0,,,,,,,,,0,0,0,0,43,0,43,0,,,,,,,,,,,,,5.0,Eye-tracking is a sensor technolozy that can,n,,sentence_trial,"[3.5160369873046875, 3.505218505859375, 3.505218505859375, 3.5214691162109375, 3.5214691162109375, 3.5167999267578125, 3.5167999267578125, 3.5332794189453125, 3.5332794189453125, 3.5357818603515625, 3.5398101806640625, 3.461761474609375, 3.0140533447265625, 1.83746337890625, nan, nan, nan, 3.3549346923828125, 3.465179443359375, 3.5628509521484375, 3.5509490966796875, 3.5418701171875, 3.5418701171875, 3.55224609375, 3.549285888671875, 3.55206298828125, 3.549957275390625, 3.55023193359375, 3.555908203125, 3.557220458984375]","[3.1093597412109375, 3.1200714111328125, 3.1200714111328125, 3.1320037841796875, 3.1320037841796875, 3.138427734375, 3.138427734375, 3.1331939697265625, 3.1331939697265625, 3.14141845703125, 3.1503448486328125, 3.0886077880859375, 2.9825897216796875, nan, nan, nan, nan, 2.93597412109375, 3.071136474609375, 3.15771484375, 3.1699371337890625, 3.1670379638671875, 3.1670379638671875, 3.1721038818359375, 3.16644287109375, 3.1639862060546875, 3.1650543212890625, 3.1695098876953125, 3.1634063720703125, 3.1724090576171875]","[1, 1, 1, 1, 1, 1, 1, 1, 1, 1, 1, 1, 1, 1, 0, 0, 0, 1, 1, 1, 1, 1, 1, 1, 1, 1, 1, 1, 1, 1]","[1, 1, 1, 1, 1, 1, 1, 1, 1, 1, 1, 1, 1, 0, 0, 0, 0, 1, 1, 1, 1, 1, 1, 1, 1, 1, 1, 1, 1, 1]",nan,nan,0.9,0.8666666666666667,71.46386299999995,None,None,71.46386299999995,None,,,rn,001,male,2022_Jul_21_1243,ErrorStudy_v1,2021.2.3,59.923298178089695,
Letters_1st_Run.xlsx,1,1,0,Eye-tracking is a sensor technolo*zy that can detec*k a person’s presen*ve and follow what they are lookin*b at in real-ti*ne.,0,0,0,0,,,,,,,,,0,0,0,0,44,0,44,0,,,,,,,,,,,,,5.5,Eye-tracking is a sensor technolozy that can , ,,sentence_trial,"[3.5566864013671875, 3.5574951171875, 3.5565185546875, 3.556610107421875, 3.5610198974609375, 3.5707244873046875, 3.571380615234375, 3.561187744140625, 3.5472412109375, 3.5381317138671875, 3.536895751953125, 3.5247802734375, 3.5162811279296875, 3.5009918212890625, 3.4898681640625, 3.480621337890625, 3.4686126708984375, 3.458251953125, 3.4498443603515625, 3.4452362060546875, 3.441802978515625, 3.4330596923828125, 3.4228363037109375, 3.4842681884765625, nan, nan, nan, nan, nan, 3.0650787353515625]","[3.17333984375, 3.171478271484375, 3.181488037109375, 3.1832275390625, 3.19036865234375, 3.191009521484375, 3.1804351806640625, 3.177459716796875, 3.17657470703125, 3.172149658203125, 3.16796875, 3.15496826171875, 3.149993896484375, 3.1485137939453125, 3.146942138671875, 3.1350555419921875, 3.1303558349609375, 3.122467041015625, 3.1169586181640625, 3.11669921875, 3.1170806884765625, 3.1067962646484375, 3.0900726318359375, 3.1518402099609375, nan, nan, nan, nan, nan, 2.7985382080078125]","[1, 1, 1, 1, 1, 1, 1, 1, 1, 1, 1, 1, 1, 1, 1, 1, 1, 1, 1, 1, 1, 1, 1, 1, 0, 0, 0, 0, 0, 1]","[1, 1, 1, 1, 1, 1, 1, 1, 1, 1, 1, 1, 1, 1, 1, 1, 1, 1, 1, 1, 1, 1, 1, 1, 0, 0, 0, 0, 0, 1]",nan,nan,0.8333333333333334,0.8333333333333334,71.9643659000003,None,None,71.9643659000003,None,,,rn,001,male,2022_Jul_21_1243,ErrorStudy_v1,2021.2.3,59.923298178089695,
Letters_1st_Run.xlsx,1,1,0,Eye-tracking is a sensor technolo*zy that can detec*k a person’s presen*ve and follow what they are lookin*b at in real-ti*ne.,0,0,0,0,,,,,,,,,0,0,0,0,45,0,45,0,,,,,,,,,,,,,6.0,Eye-tracking is a sensor technolozy that can d,d,,sentence_trial,"[3.20355224609375, 3.4194793701171875, 3.4168853759765625, 3.4222869873046875, 3.428009033203125, 3.432647705078125, 3.4359588623046875, 3.440765380859375, 3.44622802734375, 3.45318603515625, 3.46246337890625, 3.4726715087890625, 3.4756927490234375, 3.4794158935546875, 3.48858642578125, 3.4939727783203125, 3.5013885498046875, 3.5047760009765625, 3.5023193359375, 3.4862060546875, 3.4777374267578125, 3.47344970703125, 3.4620513916015625, 3.4545135498046875, 3.446502685546875, 3.4416351318359375, 3.4301300048828125, 3.423248291015625, 3.4208526611328125]","[2.9692535400390625, 3.0739593505859375, 3.07708740234375, 3.083770751953125, 3.087493896484375, 3.0839996337890625, 3.0914306640625, 3.0960693359375, 3.0962982177734375, 3.1150970458984375, 3.1226806640625, 3.1133880615234375, 3.1233978271484375, 3.1348419189453125, 3.144378662109375, 3.1500091552734375, 3.154296875, 3.153717041015625, 3.15252685546875, 3.148284912109375, 3.1447601318359375, 3.14422607421875, 3.13726806640625, 3.1328582763671875, 3.122955322265625, 3.122314453125, 3.117523193359375, 3.111602783203125, 3.1031646728515625]","[1, 1, 1, 1, 1, 1, 1, 1, 1, 1, 1, 1, 1, 1, 1, 1, 1, 1, 1, 1, 1, 1, 1, 1, 1, 1, 1, 1, 1]","[1, 1, 1, 1, 1, 1, 1, 1, 1, 1, 1, 1, 1, 1, 1, 1, 1, 1, 1, 1, 1, 1, 1, 1, 1, 1, 1, 1, 1]",3.4481590534078665,3.1140915443157327,1.0,1.0,72.48061260000031,None,None,72.48061260000031,None,,,rn,001,male,2022_Jul_21_1243,ErrorStudy_v1,2021.2.3,59.923298178089695,
Letters_1st_Run.xlsx,1,1,0,Eye-tracking is a sensor technolo*zy that can detec*k a person’s presen*ve and follow what they are lookin*b at in real-ti*ne.,0,0,0,0,,,,,,,,,0,0,0,0,46,0,46,0,,,,,,,,,,,,,6.5,Eye-tracking is a sensor technolozy that can de,e,,sentence_trial,"[3.421600341796875, 3.407440185546875, 3.3953857421875, 3.389495849609375, 3.385986328125, 3.3853759765625, 3.3880767822265625, 3.389892578125, 3.3877410888671875, 3.38720703125, 3.39532470703125, 3.39837646484375, 3.3946990966796875, 3.399505615234375, 3.4063262939453125, 3.407958984375, 3.4052886962890625, 3.4095916748046875, 3.3995513916015625, 3.4538421630859375, nan, nan, nan, nan, nan, nan, nan, nan, 2.8966064453125, 2.8966064453125]","[3.0982208251953125, 3.0880584716796875, 3.068023681640625, 3.0584564208984375, 3.058990478515625, 3.05523681640625, 3.0561981201171875, 3.0638275146484375, 3.070220947265625, 3.0612030029296875, 3.062164306640625, 3.0608673095703125, 3.062774658203125, 3.0638427734375, 3.0630340576171875, 3.0694580078125, 3.0589752197265625, 3.0574798583984375, 3.068878173828125, 3.150177001953125, nan, nan, nan, nan, nan, nan, nan, 2.8723602294921875, 2.959564208984375, 3.046630859375]","[1, 1, 1, 1, 1, 1, 1, 1, 1, 1, 1, 1, 1, 1, 1, 1, 1, 1, 1, 1, 0, 0, 0, 0, 0, 0, 0, 0, 1, 1]","[1, 1, 1, 1, 1, 1, 1, 1, 1, 1, 1, 1, 1, 1, 1, 1, 1, 1, 1, 1, 0, 0, 0, 0, 0, 0, 0, 1, 1, 1]",nan,nan,0.7333333333333333,0.7666666666666667,72.96549289999984,None,None,72.96549289999984,None,,,rn,001,male,2022_Jul_21_1243,ErrorStudy_v1,2021.2.3,59.923298178089695,
Letters_1st_Run.xlsx,1,1,0,Eye-tracking is a sensor technolo*zy that can detec*k a person’s presen*ve and follow what they are lookin*b at in real-ti*ne.,0,0,0,0,,,,,,,,,0,0,0,0,47,0,47,0,,,,,,,,,,,,,7.0,Eye-tracking is a sensor technolozy that can det,t,,sentence_trial,"[3.488311767578125, 3.425140380859375, 3.43115234375, 3.43115234375, 3.4437255859375, 3.4435272216796875, 3.4365386962890625, 3.4389495849609375, 3.4405517578125, 3.4504852294921875, 3.451263427734375, 3.455322265625, 3.4595489501953125, 3.4637603759765625, 3.4641265869140625, 3.457611083984375, 3.458404541015625, 3.4605560302734375, 3.44744873046875, 3.435882568359375, 3.42889404296875, 3.4175872802734375, 3.4178314208984375, 3.4099273681640625, 3.40740966796875, 3.3997802734375, 3.388458251953125, 3.3771209716796875, 3.3638763427734375, 3.3570556640625]","[3.0724639892578125, 3.075042724609375, 3.0826873779296875, 3.0856475830078125, 3.0783233642578125, 3.07452392578125, 3.071014404296875, 3.0731048583984375, 3.070465087890625, 3.0746917724609375, 3.0823822021484375, 3.0915679931640625, 3.103515625, 3.10321044921875, 3.0959625244140625, 3.0973968505859375, 3.0999908447265625, 3.0948638916015625, 3.0960845947265625, 3.088897705078125, 3.070526123046875, 3.051849365234375, 3.0505523681640625, 3.0498504638671875, 3.0454254150390625, 3.045745849609375, 3.040252685546875, 3.0251922607421875, 3.014556884765625, 3.005035400390625]","[1, 1, 1, 1, 1, 1, 1, 1, 1, 1, 1, 1, 1, 1, 1, 1, 1, 1, 1, 1, 1, 1, 1, 1, 1, 1, 1, 1, 1, 1]","[1, 1, 1, 1, 1, 1, 1, 1, 1, 1, 1, 1, 1, 1, 1, 1, 1, 1, 1, 1, 1, 1, 1, 1, 1, 1, 1, 1, 1, 1]",3.431713358561198,3.0703608194986978,1.0,1.0,73.4660014000001,None,None,73.4660014000001,None,,,rn,001,male,2022_Jul_21_1243,ErrorStudy_v1,2021.2.3,59.923298178089695,
Letters_1st_Run.xlsx,1,1,0,Eye-tracking is a sensor technolo*zy that can detec*k a person’s presen*ve and follow what they are lookin*b at in real-ti*ne.,0,0,0,0,,,,,,,,,0,0,0,0,48,0,48,0,,,,,,,,,,,,,7.5,Eye-tracking is a sensor technolozy that can dete,e,,sentence_trial,"[3.351165771484375, 3.343109130859375, 3.340850830078125, 3.3385467529296875, 3.34027099609375, 3.3449249267578125, 3.3501129150390625, 3.34881591796875, 3.3586883544921875, 3.3683319091796875, 3.3606719970703125, 3.365814208984375, 3.3741455078125, 3.3784332275390625, 3.3777618408203125, 3.38763427734375, 3.3958282470703125, 3.3973846435546875, 3.396453857421875, 3.3992156982421875, 3.4154205322265625, 3.4176483154296875, 3.4091339111328125, 3.415557861328125, 3.418701171875, 3.4216766357421875, 3.431610107421875, 3.4341583251953125, 3.4386138916015625, 3.4450225830078125]","[3.0005645751953125, 2.9979400634765625, 2.998321533203125, 2.9999237060546875, 3.0016937255859375, 2.9977264404296875, 3.00390625, 3.011260986328125, 3.0062255859375, 3.01507568359375, 3.0211944580078125, 3.01953125, 3.0287628173828125, 3.0352325439453125, 3.0312347412109375, 3.0341033935546875, 3.042755126953125, 3.0421600341796875, 3.0345458984375, 3.03936767578125, 3.0528106689453125, 3.0483551025390625, 3.0403289794921875, 3.0520477294921875, 3.0529937744140625, 3.049285888671875, 3.0561676025390625, 3.067535400390625, 3.07379150390625, 3.0731048583984375]","[1, 1, 1, 1, 1, 1, 1, 1, 1, 1, 1, 1, 1, 1, 1, 1, 1, 1, 1, 1, 1, 1, 1, 1, 1, 1, 1, 1, 1, 1]","[1, 1, 1, 1, 1, 1, 1, 1, 1, 1, 1, 1, 1, 1, 1, 1, 1, 1, 1, 1, 1, 1, 1, 1, 1, 1, 1, 1, 1, 1]",3.385523478190104,3.030931599934896,1.0,1.0,73.96649160000015,None,None,73.96649160000015,None,,,rn,001,male,2022_Jul_21_1243,ErrorStudy_v1,2021.2.3,59.923298178089695,
Letters_1st_Run.xlsx,1,1,0,Eye-tracking is a sensor technolo*zy that can detec*k a person’s presen*ve and follow what they are lookin*b at in real-ti*ne.,0,0,0,0,,,,,,,,,0,0,0,0,49,0,49,0,,,,,,,,,,,,,8.0,Eye-tracking is a sensor technolozy that can detec,c,,sentence_trial,"[3.4411468505859375, 3.44775390625, 3.4651031494140625, 3.4720001220703125, 3.4652557373046875, 3.471099853515625, 3.4829254150390625, 3.4861297607421875, 3.49859619140625, 3.505340576171875, 3.4996185302734375, 3.5027618408203125, 3.4984130859375, 3.5016326904296875, 3.5106201171875, 3.514068603515625, 3.5159912109375, 3.5181884765625, 3.51885986328125, 3.5187835693359375, 3.526275634765625, 3.5353240966796875, 3.53009033203125, 3.530609130859375, 3.539825439453125, 3.5407257080078125, 3.5360107421875, 3.535247802734375, 3.5356292724609375, 3.537811279296875]","[3.07586669921875, 3.0814666748046875, 3.0867462158203125, 3.101104736328125, 3.1073150634765625, 3.1092071533203125, 3.1026458740234375, 3.1031036376953125, 3.11822509765625, 3.124725341796875, 3.1251373291015625, 3.128936767578125, 3.1259613037109375, 3.135406494140625, 3.1401519775390625, 3.1394805908203125, 3.1303558349609375, 3.1260986328125, 3.1359405517578125, 3.143096923828125, 3.15087890625, 3.144622802734375, 3.1343841552734375, 3.1409149169921875, 3.141204833984375, 3.1348419189453125, 3.1414337158203125, 3.143280029296875, 3.1346282958984375, 3.1323699951171875]","[1, 1, 1, 1, 1, 1, 1, 1, 1, 1, 1, 1, 1, 1, 1, 1, 1, 1, 1, 1, 1, 1, 1, 1, 1, 1, 1, 1, 1, 1]","[1, 1, 1, 1, 1, 1, 1, 1, 1, 1, 1, 1, 1, 1, 1, 1, 1, 1, 1, 1, 1, 1, 1, 1, 1, 1, 1, 1, 1, 1]",3.506061299641927,3.124651082356771,1.0,1.0,74.46706200000062,None,None,74.46706200000062,None,,,rn,001,male,2022_Jul_21_1243,ErrorStudy_v1,2021.2.3,59.923298178089695,
Letters_1st_Run.xlsx,1,1,0,Eye-tracking is a sensor technolo*zy that can detec*k a person’s presen*ve and follow what they are lookin*b at in real-ti*ne.,0,0,0,0,,,,,,,,,0,0,0,0,50,0,50,0,,,,,,,,,,,,,0,Eye-tracking is a sensor technolozy that can deteck,k,error,sentence_trial,"[3.5329437255859375, 3.5360565185546875, 3.5428009033203125, 3.5441436767578125, 3.540679931640625, 3.54266357421875, 3.5471038818359375, 3.5472869873046875, 3.55572509765625, 3.554351806640625, 3.5523223876953125, 3.556365966796875, 3.5469818115234375, 3.5471038818359375, 3.558563232421875, 3.5587005615234375, 3.5576171875, 3.55816650390625, 3.5542144775390625, 3.5501251220703125, 3.549224853515625, 3.548858642578125, 3.5424346923828125, 3.5370635986328125, 3.533447265625, 3.53533935546875, 3.5391998291015625, 3.5355377197265625, 3.5318756103515625, 3.529998779296875]","[3.13623046875, 3.1406097412109375, 3.139190673828125, 3.1425628662109375, 3.1453704833984375, 3.1418609619140625, 3.1364288330078125, 3.1419830322265625, 3.14581298828125, 3.1465301513671875, 3.1445770263671875, 3.147186279296875, 3.15545654296875, 3.1532745361328125, 3.1512298583984375, 3.1538848876953125, 3.155059814453125, 3.1551513671875, 3.1627960205078125, 3.167083740234375, 3.158782958984375, 3.150054931640625, 3.150238037109375, 3.1417236328125, 3.1392364501953125, 3.1430816650390625, 3.1464385986328125, 3.1353302001953125, 3.1327972412109375, 3.130096435546875]","[1, 1, 1, 1, 1, 1, 1, 1, 1, 1, 1, 1, 1, 1, 1, 1, 1, 1, 1, 1, 1, 1, 1, 1, 1, 1, 1, 1, 1, 1]","[1, 1, 1, 1, 1, 1, 1, 1, 1, 1, 1, 1, 1, 1, 1, 1, 1, 1, 1, 1, 1, 1, 1, 1, 1, 1, 1, 1, 1, 1]",3.545563252766927,3.1463353474934896,1.0,1.0,74.96767450000061,None,None,74.96767450000061,None,,,rn,001,male,2022_Jul_21_1243,ErrorStudy_v1,2021.2.3,59.923298178089695,
Letters_1st_Run.xlsx,1,1,0,Eye-tracking is a sensor technolo*zy that can detec*k a person’s presen*ve and follow what they are lookin*b at in real-ti*ne.,0,0,0,0,,,,,,,,,0,0,0,0,51,0,51,0,,,,,,,,,,,,,0.5,Eye-tracking is a sensor technolozy that can deteck , ,,sentence_trial,"[3.5265960693359375, 3.521453857421875, 3.5224609375, 3.5264739990234375, 3.5306396484375, 3.5329437255859375, 3.527862548828125, 3.5284881591796875, 3.5344390869140625, 3.5408172607421875, 3.546234130859375, 3.550567626953125, 3.5610504150390625, 3.564056396484375, 3.5649871826171875, 3.5771942138671875, 3.5867919921875, 3.5912017822265625, 3.5947265625, 3.60369873046875, 3.6016082763671875, 3.603485107421875, 3.6092376708984375, 3.6141510009765625, 3.6144866943359375, 3.612884521484375, 3.6204071044921875, 3.62298583984375, 3.616546630859375, 3.6137847900390625]","[3.1346588134765625, 3.145904541015625, 3.1408538818359375, 3.1345062255859375, 3.130645751953125, 3.139984130859375, 3.1356048583984375, 3.1356048583984375, 3.142791748046875, 3.1458740234375, 3.1512298583984375, 3.149658203125, 3.15313720703125, 3.169036865234375, 3.178619384765625, 3.1860198974609375, 3.185302734375, 3.188995361328125, 3.200347900390625, 3.210052490234375, 3.208404541015625, 3.2097625732421875, 3.2109527587890625, 3.2108612060546875, 3.2096099853515625, 3.204803466796875, 3.201141357421875, 3.2060089111328125, 3.2092132568359375, 3.20477294921875]","[1, 1, 1, 1, 1, 1, 1, 1, 1, 1, 1, 1, 1, 1, 1, 1, 1, 1, 1, 1, 1, 1, 1, 1, 1, 1, 1, 1, 1, 1]","[1, 1, 1, 1, 1, 1, 1, 1, 1, 1, 1, 1, 1, 1, 1, 1, 1, 1, 1, 1, 1, 1, 1, 1, 1, 1, 1, 1, 1, 1]",3.5720753987630207,3.1744786580403646,1.0,1.0,75.46823230000064,None,space,75.46823230000064,None,0.8419131000000561,0.34191310000005615,rn,001,male,2022_Jul_21_1243,ErrorStudy_v1,2021.2.3,59.923298178089695,
Letters_1st_Run.xlsx,1,1,0,Eye-tracking is a sensor technolo*zy that can detec*k a person’s presen*ve and follow what they are lookin*b at in real-ti*ne.,0,0,0,0,,,,,,,,,0,0,0,0,52,0,52,0,,,,,,,,,,,,,1.0,Eye-tracking is a sensor technolozy that can deteck a,a,,sentence_trial,"[3.615447998046875, 3.61767578125, 3.6152801513671875, 3.61090087890625, 3.61065673828125, 3.6063079833984375, 3.6028594970703125, 3.60504150390625, 3.5982513427734375, 3.594390869140625, 3.6007080078125, 3.5968017578125, 3.593414306640625, 3.5955352783203125, 3.592864990234375, 3.5950164794921875, 3.5945892333984375, 3.592742919921875, 3.5945587158203125, 3.593719482421875, 3.594085693359375, 3.5949554443359375, 3.5938720703125, 3.5893096923828125, 3.581878662109375, 3.57598876953125, 3.5767974853515625, 3.5537567138671875, 3.489501953125, nan]","[3.20037841796875, 3.1960906982421875, 3.1959075927734375, 3.2011566162109375, 3.2043304443359375, 3.19830322265625, 3.1915283203125, 3.187286376953125, 3.1837310791015625, 3.181671142578125, 3.1774139404296875, 3.1673736572265625, 3.1680145263671875, 3.1738739013671875, 3.1769866943359375, 3.1708831787109375, 3.1638641357421875, 3.165374755859375, 3.1677703857421875, 3.16448974609375, 3.167205810546875, 3.163543701171875, 3.156890869140625, 3.15875244140625, 3.1589508056640625, 3.1606597900390625, 3.1623077392578125, 3.155029296875, 3.1053924560546875, nan]","[1, 1, 1, 1, 1, 1, 1, 1, 1, 1, 1, 1, 1, 1, 1, 1, 1, 1, 1, 1, 1, 1, 1, 1, 1, 1, 1, 1, 1, 0]","[1, 1, 1, 1, 1, 1, 1, 1, 1, 1, 1, 1, 1, 1, 1, 1, 1, 1, 1, 1, 1, 1, 1, 1, 1, 1, 1, 1, 1, 0]",nan,nan,0.9666666666666667,0.9666666666666667,75.9688784,None,None,75.9688784,None,,,rn,001,male,2022_Jul_21_1243,ErrorStudy_v1,2021.2.3,59.923298178089695,
Letters_1st_Run.xlsx,1,1,0,Eye-tracking is a sensor technolo*zy that can detec*k a person’s presen*ve and follow what they are lookin*b at in real-ti*ne.,0,0,0,0,,,,,,,,,0,0,0,0,53,0,53,0,,,,,,,,,,,,,1.5,Eye-tracking is a sensor technolozy that can deteck a , ,,sentence_trial,"[nan, nan, nan, nan, nan, nan, nan, nan, nan, nan, nan, nan, nan, nan, nan, nan, nan, nan, nan, nan, nan, nan, nan, nan, nan, nan, nan, nan, nan, nan]","[nan, nan, nan, nan, nan, nan, nan, nan, nan, nan, nan, nan, nan, nan, nan, nan, nan, nan, nan, nan, nan, nan, nan, nan, nan, nan, nan, nan, nan, nan]","[0, 0, 0, 0, 0, 0, 0, 0, 0, 0, 0, 0, 0, 0, 0, 0, 0, 0, 0, 0, 0, 0, 0, 0, 0, 0, 0, 0, 0, 0]","[0, 0, 0, 0, 0, 0, 0, 0, 0, 0, 0, 0, 0, 0, 0, 0, 0, 0, 0, 0, 0, 0, 0, 0, 0, 0, 0, 0, 0, 0]",nan,nan,0.0,0.0,76.46946860000025,None,None,76.46946860000025,None,,,rn,001,male,2022_Jul_21_1243,ErrorStudy_v1,2021.2.3,59.923298178089695,
,,,,,,,,,,,,,,,,,,,,,,,,,,,,,,,,,,,,,2.0,Eye-tracking is a sensor technolozy that can deteck a p,p,,,,,,,,,,,,,,,,,,,,,,,,,
